Typical Measured Spectrum of Semrock NF03-785E Optical Filter	
For wavelengths between 320 and 1120 nm, values near or below 3e-7 (Optical Density 6.5) are measurement noise limited.
For wavelengths < 320 nm and > 1120 nm, values near or below 3e-6 (Optical Density 5.5) are measurement noise limited. 
Data format:  Wavelength (nm) <tab> Transmission (0 to 1)
345.0	0.08285
345.2	0.16082
345.4	0.34326
345.6	0.46158
345.8	0.50479
346.0	0.53054
346.2	0.54876
346.4	0.56914
346.6	0.57985
346.8	0.58397
347.0	0.58908
347.2	0.58657
347.4	0.60718
347.6	0.61415
347.8	0.63341
348.0	0.64385
348.2	0.64471
348.4	0.64838
348.6	0.65855
348.8	0.66942
349.0	0.68284
349.2	0.6935
349.4	0.70337
349.6	0.69912
349.8	0.70067
350.0	0.69637
350.2	0.69256
350.4	0.69813
350.6	0.70397
350.8	0.71353
351.0	0.71319
351.2	0.71841
351.4	0.72594
351.6	0.7199
351.8	0.71921
352.0	0.71576
352.2	0.71888
352.4	0.72279
352.6	0.73172
352.8	0.74177
353.0	0.74642
353.2	0.74505
353.4	0.74802
353.6	0.74881
353.8	0.74669
354.0	0.74904
354.2	0.75032
354.4	0.75711
354.6	0.76073
354.8	0.76171
355.0	0.76829
355.2	0.77043
355.4	0.76628
355.6	0.76809
355.8	0.77199
356.0	0.7709
356.2	0.77244
356.4	0.78052
356.6	0.78588
356.8	0.78803
357.0	0.79089
357.2	0.79384
357.4	0.79253
357.6	0.79296
357.8	0.78831
358.0	0.78392
358.2	0.79031
358.4	0.79325
358.6	0.795
358.8	0.80355
359.0	0.81429
359.2	0.81822
359.4	0.82014
359.6	0.82158
359.8	0.8213
360.0	0.81344
360.2	0.81013
360.4	0.81053
360.6	0.81104
360.8	0.80902
361.0	0.81465
361.2	0.8242
361.4	0.82622
361.6	0.82872
361.8	0.83311
362.0	0.83531
362.2	0.83199
362.4	0.82921
362.6	0.83216
362.8	0.82979
363.0	0.82411
363.2	0.82887
363.4	0.83387
363.6	0.83495
363.8	0.83591
364.0	0.84228
364.2	0.84838
364.4	0.84719
364.6	0.84574
364.8	0.8485
365.0	0.84908
365.2	0.84745
365.4	0.85111
365.6	0.85441
365.8	0.85471
366.0	0.85692
366.2	0.86164
366.4	0.86595
366.6	0.86398
366.8	0.86093
367.0	0.8642
367.2	0.86016
367.4	0.85381
367.6	0.85045
367.8	0.85189
368.0	0.85246
368.2	0.85362
368.4	0.85073
368.6	0.85967
368.8	0.86434
369.0	0.86366
369.2	0.86337
369.4	0.86518
369.6	0.87043
369.8	0.87162
370.0	0.86403
370.2	0.86284
370.4	0.86788
370.6	0.87114
370.8	0.8694
371.0	0.86749
371.2	0.8715
371.4	0.87806
371.6	0.8838
371.8	0.88296
372.0	0.88303
372.2	0.88957
372.4	0.89059
372.6	0.88875
372.8	0.88252
373.0	0.8814
373.2	0.88451
373.4	0.88279
373.6	0.87694
373.8	0.87706
374.0	0.88287
374.2	0.88937
374.4	0.89121
374.6	0.89155
374.8	0.89446
375.0	0.90023
375.2	0.90482
375.4	0.89871
375.6	0.88975
375.8	0.88668
376.0	0.89055
376.2	0.88933
376.4	0.88452
376.6	0.87828
376.8	0.87886
377.0	0.88724
377.2	0.89146
377.4	0.89278
377.6	0.89414
377.8	0.9007
378.0	0.9079
378.2	0.9104
378.4	0.9062
378.6	0.90166
378.8	0.9007
379.0	0.90205
379.2	0.89944
379.4	0.89207
379.6	0.88575
379.8	0.88871
380.0	0.89565
380.2	0.89954
380.4	0.89722
380.6	0.8957
380.8	0.89995
381.0	0.91129
381.2	0.91602
381.4	0.91303
381.6	0.90671
381.8	0.90647
382.0	0.90554
382.2	0.90592
382.4	0.90444
382.6	0.89841
382.8	0.89412
383.0	0.89543
383.2	0.90054
383.4	0.89832
383.6	0.89633
383.8	0.89839
384.0	0.9051
384.2	0.91347
384.4	0.91496
384.6	0.91735
384.8	0.91581
385.0	0.91967
385.2	0.92161
385.4	0.92077
385.6	0.91309
385.8	0.90653
386.0	0.90374
386.2	0.90608
386.4	0.90606
386.6	0.90294
386.8	0.89936
387.0	0.90031
387.2	0.90776
387.4	0.91498
387.6	0.92046
387.8	0.91713
388.0	0.91775
388.2	0.92035
388.4	0.92711
388.6	0.92921
388.8	0.92496
389.0	0.91945
389.2	0.91695
389.4	0.91686
389.6	0.92054
389.8	0.91769
390.0	0.91078
390.2	0.90373
390.4	0.90492
390.6	0.91261
390.8	0.91826
391.0	0.91974
391.2	0.91687
391.4	0.91402
391.6	0.91855
391.8	0.92564
392.0	0.92624
392.2	0.92833
392.4	0.92878
392.6	0.92231
392.8	0.91595
393.0	0.91794
393.2	0.91999
393.4	0.91951
393.6	0.91734
393.8	0.91011
394.0	0.90937
394.2	0.91295
394.4	0.92067
394.6	0.92274
394.8	0.92171
395.0	0.92229
395.2	0.92416
395.4	0.93075
395.6	0.93787
395.8	0.93834
396.0	0.93342
396.2	0.92808
396.4	0.92852
396.6	0.93206
396.8	0.93679
397.0	0.93321
397.2	0.92781
397.4	0.9212
397.6	0.91706
397.8	0.92183
398.0	0.92601
398.2	0.92817
398.4	0.92506
398.6	0.92045
398.8	0.92485
399.0	0.93241
399.2	0.93878
399.4	0.94048
399.6	0.9379
399.8	0.93384
400.0	0.93408
400.2	0.93519
400.4	0.93759
400.6	0.93252
400.8	0.92754
401.0	0.91955
401.2	0.91568
401.4	0.92046
401.6	0.92498
401.8	0.9299
402.0	0.92821
402.2	0.92495
402.4	0.92332
402.6	0.92782
402.8	0.93634
403.0	0.94522
403.2	0.94678
403.4	0.94567
403.6	0.94186
403.8	0.94145
404.0	0.94318
404.2	0.94764
404.4	0.94607
404.6	0.9382
404.8	0.93127
405.0	0.92569
405.2	0.92521
405.4	0.92736
405.6	0.93077
405.8	0.92992
406.0	0.92867
406.2	0.92597
406.4	0.92941
406.6	0.93615
406.8	0.94455
407.0	0.94769
407.2	0.94561
407.4	0.94152
407.6	0.94044
407.8	0.94031
408.0	0.94546
408.2	0.94931
408.4	0.94643
408.6	0.93919
408.8	0.93391
409.0	0.92975
409.2	0.93104
409.4	0.93569
409.6	0.93398
409.8	0.9292
410.0	0.92257
410.2	0.91859
410.4	0.92124
410.6	0.93029
410.8	0.9405
411.0	0.94623
411.2	0.94622
411.4	0.94276
411.6	0.94173
411.8	0.94177
412.0	0.94631
412.2	0.95071
412.4	0.94864
412.6	0.9432
412.8	0.93716
413.0	0.93416
413.2	0.93559
413.4	0.9391
413.6	0.94052
413.8	0.93693
414.0	0.93111
414.2	0.9261
414.4	0.92464
414.6	0.92819
414.8	0.93778
415.0	0.94429
415.2	0.94537
415.4	0.94222
415.6	0.93923
415.8	0.93966
416.0	0.94405
416.2	0.95067
416.4	0.95742
416.6	0.95764
416.8	0.95149
417.0	0.94581
417.2	0.94124
417.4	0.9409
417.6	0.94031
417.8	0.94293
418.0	0.94023
418.2	0.93564
418.4	0.93234
418.6	0.93183
418.8	0.93245
419.0	0.93784
419.2	0.94212
419.4	0.94183
419.6	0.93969
419.8	0.93752
420.0	0.94006
420.2	0.9439
420.4	0.95133
420.6	0.95549
420.8	0.95664
421.0	0.9529
421.2	0.94558
421.4	0.9428
421.6	0.94256
421.8	0.9453
422.0	0.94668
422.2	0.94629
422.4	0.94331
422.6	0.93753
422.8	0.93423
423.0	0.93303
423.2	0.93617
423.4	0.94089
423.6	0.9455
423.8	0.9445
424.0	0.94326
424.2	0.9417
424.4	0.94372
424.6	0.94676
424.8	0.95401
425.0	0.95864
425.2	0.95984
425.4	0.95715
425.6	0.95313
425.8	0.94976
426.0	0.94946
426.2	0.95104
426.4	0.95258
426.6	0.95172
426.8	0.94634
427.0	0.93971
427.2	0.9333
427.4	0.92964
427.6	0.93149
427.8	0.93551
428.0	0.93892
428.2	0.9397
428.4	0.93969
428.6	0.93665
428.8	0.93624
429.0	0.93825
429.2	0.94318
429.4	0.95266
429.6	0.95906
429.8	0.96098
430.0	0.95929
430.2	0.95654
430.4	0.95439
430.6	0.9535
430.8	0.95691
431.0	0.96029
431.2	0.96096
431.4	0.95729
431.6	0.95087
431.8	0.94513
432.0	0.94064
432.2	0.94086
432.4	0.94382
432.6	0.94703
432.8	0.9481
433.0	0.94652
433.2	0.94111
433.4	0.93731
433.6	0.93757
433.8	0.94093
434.0	0.94752
434.2	0.95639
434.4	0.9601
434.6	0.96075
434.8	0.9569
435.0	0.95232
435.2	0.95028
435.4	0.95119
435.6	0.95491
435.8	0.958
436.0	0.95924
436.2	0.95808
436.4	0.95082
436.6	0.94462
436.8	0.94143
437.0	0.93977
437.2	0.94102
437.4	0.94426
437.6	0.94488
437.8	0.94417
438.0	0.93893
438.2	0.9362
438.4	0.93412
438.6	0.93678
438.8	0.94099
439.0	0.94661
439.2	0.95177
439.4	0.95425
439.6	0.9558
439.8	0.95488
440.0	0.95563
440.2	0.95785
440.4	0.96191
440.6	0.96478
440.8	0.96521
441.0	0.96375
441.2	0.95819
441.4	0.95285
441.6	0.94775
441.8	0.94596
442.0	0.9482
442.2	0.95231
442.4	0.95431
442.6	0.95288
442.8	0.94888
443.0	0.94337
443.2	0.93738
443.4	0.93468
443.6	0.93767
443.8	0.94228
444.0	0.9482
444.2	0.95361
444.4	0.95573
444.6	0.95435
444.8	0.95254
445.0	0.95117
445.2	0.95288
445.4	0.95731
445.6	0.96259
445.8	0.96665
446.0	0.96646
446.2	0.96276
446.4	0.95757
446.6	0.95129
446.8	0.94636
447.0	0.94613
447.2	0.94863
447.4	0.95072
447.6	0.94984
447.8	0.9494
448.0	0.94424
448.2	0.94045
448.4	0.93737
448.6	0.93799
448.8	0.93933
449.0	0.94502
449.2	0.94936
449.4	0.95148
449.6	0.95072
449.8	0.94795
450.0	0.94638
450.2	0.94491
450.4	0.94791
450.6	0.95237
450.8	0.95896
451.0	0.96475
451.2	0.9668
451.4	0.96454
451.6	0.96204
451.8	0.9566
452.0	0.95404
452.2	0.95392
452.4	0.95515
452.6	0.95676
452.8	0.95682
453.0	0.95592
453.2	0.95001
453.4	0.94699
453.6	0.94199
453.8	0.94014
454.0	0.94084
454.2	0.94332
454.4	0.94736
454.6	0.95039
454.8	0.9521
455.0	0.95119
455.2	0.94964
455.4	0.94809
455.6	0.94882
455.8	0.953
456.0	0.95818
456.2	0.96357
456.4	0.9658
456.6	0.96751
456.8	0.96513
457.0	0.9616
457.2	0.95865
457.4	0.95544
457.6	0.95721
457.8	0.95865
458.0	0.96186
458.2	0.96234
458.4	0.96064
458.6	0.95616
458.8	0.95022
459.0	0.94505
459.2	0.94178
459.4	0.9407
459.6	0.94211
459.8	0.94471
460.0	0.94591
460.2	0.94599
460.4	0.94482
460.6	0.94148
460.8	0.93844
461.0	0.9351
461.2	0.93613
461.4	0.94016
461.6	0.94459
461.8	0.9495
462.0	0.95262
462.2	0.95438
462.4	0.95592
462.6	0.95512
462.8	0.9561
463.0	0.95889
463.2	0.96099
463.4	0.96456
463.6	0.96581
463.8	0.96451
464.0	0.96211
464.2	0.95698
464.4	0.95192
464.6	0.94727
464.8	0.94459
465.0	0.94581
465.2	0.94772
465.4	0.95257
465.6	0.95635
465.8	0.95643
466.0	0.95642
466.2	0.95362
466.4	0.95188
466.6	0.95138
466.8	0.95268
467.0	0.95632
467.2	0.96107
467.4	0.96478
467.6	0.96791
467.8	0.96735
468.0	0.96677
468.2	0.96459
468.4	0.96122
468.6	0.95809
468.8	0.95775
469.0	0.9597
469.2	0.9619
469.4	0.96361
469.6	0.96508
469.8	0.96325
470.0	0.95923
470.2	0.95506
470.4	0.94921
470.6	0.94654
470.8	0.94639
471.0	0.94604
471.2	0.94904
471.4	0.95111
471.6	0.95247
471.8	0.95314
472.0	0.95178
472.2	0.94966
472.4	0.94986
472.6	0.94867
472.8	0.95135
473.0	0.95546
473.2	0.9591
473.4	0.96238
473.6	0.96483
473.8	0.96425
474.0	0.96248
474.2	0.9615
474.4	0.95954
474.6	0.96036
474.8	0.96262
475.0	0.96551
475.2	0.96872
475.4	0.97072
475.6	0.97016
475.8	0.96805
476.0	0.96315
476.2	0.95957
476.4	0.95617
476.6	0.9544
476.8	0.95426
477.0	0.95534
477.2	0.95807
477.4	0.95823
477.6	0.95653
477.8	0.95459
478.0	0.95033
478.2	0.94599
478.4	0.94422
478.6	0.9432
478.8	0.94522
479.0	0.9498
479.2	0.95481
479.4	0.95932
479.6	0.96242
479.8	0.9632
480.0	0.96173
480.2	0.95901
480.4	0.95735
480.6	0.95593
480.8	0.95657
481.0	0.95964
481.2	0.96316
481.4	0.96638
481.6	0.9692
481.8	0.96868
482.0	0.9666
482.2	0.96193
482.4	0.95692
482.6	0.9533
482.8	0.95122
483.0	0.95102
483.2	0.9526
483.4	0.95477
483.6	0.95622
483.8	0.95631
484.0	0.95473
484.2	0.95188
484.4	0.94717
484.6	0.94531
484.8	0.94449
485.0	0.94602
485.2	0.94948
485.4	0.95424
485.6	0.95892
485.8	0.96177
486.0	0.96478
486.2	0.96377
486.4	0.96151
486.6	0.95898
486.8	0.95665
487.0	0.95635
487.2	0.95793
487.4	0.96102
487.6	0.96525
487.8	0.96892
488.0	0.97107
488.2	0.97109
488.4	0.96851
488.6	0.96459
488.8	0.9605
489.0	0.95793
489.2	0.95546
489.4	0.95562
489.6	0.95676
489.8	0.95893
490.0	0.95999
490.2	0.96049
490.4	0.95821
490.6	0.95486
490.8	0.95128
491.0	0.94767
491.2	0.94469
491.4	0.94395
491.6	0.94482
491.8	0.94758
492.0	0.9508
492.2	0.95349
492.4	0.95601
492.6	0.95631
492.8	0.95708
493.0	0.95575
493.2	0.95551
493.4	0.95555
493.6	0.95732
493.8	0.95854
494.0	0.96138
494.2	0.96482
494.4	0.96645
494.6	0.96606
494.8	0.96572
495.0	0.96416
495.2	0.96159
495.4	0.95897
495.6	0.95772
495.8	0.95834
496.0	0.95856
496.2	0.95982
496.4	0.96179
496.6	0.96144
496.8	0.95948
497.0	0.95774
497.2	0.95491
497.4	0.95097
497.6	0.94798
497.8	0.94682
498.0	0.9467
498.2	0.94839
498.4	0.95197
498.6	0.95479
498.8	0.95704
499.0	0.95853
499.2	0.95876
499.4	0.95754
499.6	0.95631
499.8	0.95457
500.0	0.95445
500.2	0.95468
500.4	0.95642
500.6	0.96029
500.8	0.96383
501.0	0.96652
501.2	0.96963
501.4	0.97086
501.6	0.97001
501.8	0.96848
502.0	0.96541
502.2	0.96369
502.4	0.96141
502.6	0.96075
502.8	0.96203
503.0	0.96373
503.2	0.96622
503.4	0.96701
503.6	0.96751
503.8	0.96541
504.0	0.96202
504.2	0.95722
504.4	0.95383
504.6	0.94997
504.8	0.94677
505.0	0.94636
505.2	0.94698
505.4	0.94857
505.6	0.95098
505.8	0.9534
506.0	0.95441
506.2	0.95482
506.4	0.95463
506.6	0.95472
506.8	0.95389
507.0	0.95467
507.2	0.95617
507.4	0.95923
507.6	0.96211
507.8	0.96553
508.0	0.96895
508.2	0.97042
508.4	0.97004
508.6	0.96933
508.8	0.96845
509.0	0.9669
509.2	0.96554
509.4	0.96532
509.6	0.96667
509.8	0.96887
510.0	0.97094
510.2	0.97334
510.4	0.97411
510.6	0.97432
510.8	0.97126
511.0	0.96695
511.2	0.96288
511.4	0.95784
511.6	0.95337
511.8	0.95071
512.0	0.95028
512.2	0.95133
512.4	0.95272
512.6	0.95571
512.8	0.95856
513.0	0.95966
513.2	0.9594
513.4	0.95798
513.6	0.95587
513.8	0.95296
514.0	0.95097
514.2	0.95008
514.4	0.95019
514.6	0.95157
514.8	0.95416
515.0	0.95833
515.2	0.96253
515.4	0.96551
515.6	0.96725
515.8	0.96846
516.0	0.9686
516.2	0.9676
516.4	0.96657
516.6	0.96594
516.8	0.96682
517.0	0.96696
517.2	0.96834
517.4	0.97009
517.6	0.97102
517.8	0.97044
518.0	0.96964
518.2	0.96763
518.4	0.96554
518.6	0.96211
518.8	0.95965
519.0	0.95781
519.2	0.95708
519.4	0.95682
519.6	0.95766
519.8	0.95927
520.0	0.96024
520.2	0.96067
520.4	0.95962
520.6	0.95836
520.8	0.95613
521.0	0.95395
521.2	0.9513
521.4	0.95108
521.6	0.95208
521.8	0.95342
522.0	0.95677
522.2	0.96079
522.4	0.96585
522.6	0.96933
522.8	0.97215
523.0	0.97312
523.2	0.97308
523.4	0.97246
523.6	0.96965
523.8	0.9682
524.0	0.96757
524.2	0.96767
524.4	0.96838
524.6	0.97011
524.8	0.972
525.0	0.97326
525.2	0.9741
525.4	0.97312
525.6	0.97218
525.8	0.9697
526.0	0.96574
526.2	0.96226
526.4	0.95938
526.6	0.95802
526.8	0.95744
527.0	0.95757
527.2	0.95855
527.4	0.96093
527.6	0.96268
527.8	0.9633
528.0	0.96291
528.2	0.96165
528.4	0.96035
528.6	0.95689
528.8	0.95483
529.0	0.95371
529.2	0.95364
529.4	0.95456
529.6	0.95606
529.8	0.95913
530.0	0.96223
530.2	0.96517
530.4	0.96689
530.6	0.96784
530.8	0.96833
531.0	0.9668
531.2	0.96593
531.4	0.96397
531.6	0.96268
531.8	0.96234
532.0	0.96267
532.2	0.96334
532.4	0.96594
532.6	0.96767
532.8	0.96976
533.0	0.97025
533.2	0.97066
533.4	0.96957
533.6	0.96792
533.8	0.96538
534.0	0.96249
534.2	0.96058
534.4	0.95922
534.6	0.95866
534.8	0.95892
535.0	0.95924
535.2	0.96079
535.4	0.96214
535.6	0.96256
535.8	0.96132
536.0	0.96067
536.2	0.95848
536.4	0.9565
536.6	0.95483
536.8	0.95317
537.0	0.95311
537.2	0.95394
537.4	0.95628
537.6	0.9585
537.8	0.96132
538.0	0.96378
538.2	0.96599
538.4	0.9666
538.6	0.96663
538.8	0.96523
539.0	0.96426
539.2	0.96197
539.4	0.95986
539.6	0.95906
539.8	0.96014
540.0	0.96192
540.2	0.96353
540.4	0.96601
540.6	0.96908
540.8	0.97108
541.0	0.97228
541.2	0.97218
541.4	0.9709
541.6	0.96868
541.8	0.96598
542.0	0.96315
542.2	0.96046
542.4	0.95876
542.6	0.95902
542.8	0.95954
543.0	0.96034
543.2	0.96139
543.4	0.96332
543.6	0.96461
543.8	0.96525
544.0	0.9646
544.2	0.96248
544.4	0.95927
544.6	0.95721
544.8	0.95432
545.0	0.95151
545.2	0.9498
545.4	0.94959
545.6	0.95078
545.8	0.9528
546.0	0.95498
546.2	0.95831
546.4	0.961
546.6	0.96296
546.8	0.96388
547.0	0.96358
547.2	0.96337
547.4	0.96284
547.6	0.96176
547.8	0.96089
548.0	0.96122
548.2	0.96319
548.4	0.96602
548.6	0.96791
548.8	0.9712
549.0	0.9739
549.2	0.97609
549.4	0.97736
549.6	0.97664
549.8	0.97479
550.0	0.97209
550.2	0.96874
550.4	0.96576
550.6	0.96215
550.8	0.95995
551.0	0.95794
551.2	0.95819
551.4	0.9591
551.6	0.95989
551.8	0.96062
552.0	0.96181
552.2	0.96268
552.4	0.9622
552.6	0.96087
552.8	0.95814
553.0	0.95609
553.2	0.953
553.4	0.95107
553.6	0.94871
553.8	0.94836
554.0	0.94813
554.2	0.94976
554.4	0.95231
554.6	0.95455
554.8	0.9563
555.0	0.95824
555.2	0.96017
555.4	0.96018
555.6	0.95995
555.8	0.95959
556.0	0.95902
556.2	0.95848
556.4	0.95864
556.6	0.95916
556.8	0.96031
557.0	0.96227
557.2	0.96531
557.4	0.96791
557.6	0.9703
557.8	0.97175
558.0	0.97249
558.2	0.97268
558.4	0.97189
558.6	0.97046
558.8	0.96832
559.0	0.96629
559.2	0.96405
559.4	0.96321
559.6	0.96275
559.8	0.96252
560.0	0.9629
560.2	0.964
560.4	0.96583
560.6	0.96622
560.8	0.96577
561.0	0.9643
561.2	0.96264
561.4	0.96081
561.6	0.95766
561.8	0.95458
562.0	0.95228
562.2	0.95053
562.4	0.95009
562.6	0.95056
562.8	0.95114
563.0	0.95277
563.2	0.95523
563.4	0.95752
563.6	0.96022
563.8	0.9606
564.0	0.96153
564.2	0.96059
564.4	0.95937
564.6	0.95779
564.8	0.95596
565.0	0.95447
565.2	0.95364
565.4	0.95367
565.6	0.95481
565.8	0.95637
566.0	0.95875
566.2	0.96171
566.4	0.96495
566.6	0.96817
566.8	0.97074
567.0	0.97161
567.2	0.97143
567.4	0.9707
567.6	0.97054
567.8	0.9692
568.0	0.96648
568.2	0.96476
568.4	0.96383
568.6	0.96337
568.8	0.96452
569.0	0.9649
569.2	0.96546
569.4	0.96635
569.6	0.96713
569.8	0.96743
570.0	0.96642
570.2	0.96452
570.4	0.96181
570.6	0.95866
570.8	0.95593
571.0	0.95302
571.2	0.95061
571.4	0.94883
571.6	0.9478
571.8	0.94845
572.0	0.94896
572.2	0.95132
572.4	0.95243
572.6	0.95415
572.8	0.95622
573.0	0.95703
573.2	0.95745
573.4	0.95691
573.6	0.95541
573.8	0.95298
574.0	0.95244
574.2	0.95163
574.4	0.95098
574.6	0.95132
574.8	0.95205
575.0	0.95416
575.2	0.95763
575.4	0.96098
575.6	0.96383
575.8	0.96637
576.0	0.96899
576.2	0.97052
576.4	0.97084
576.6	0.97092
576.8	0.97013
577.0	0.96859
577.2	0.96679
577.4	0.96599
577.6	0.96526
577.8	0.96527
578.0	0.96586
578.2	0.96645
578.4	0.9678
578.6	0.96985
578.8	0.97142
579.0	0.97225
579.2	0.97244
579.4	0.97159
579.6	0.96931
579.8	0.96777
580.0	0.96541
580.2	0.96259
580.4	0.95937
580.6	0.95673
580.8	0.95517
581.0	0.95462
581.2	0.95485
581.4	0.95494
581.6	0.95559
581.8	0.9573
582.0	0.95903
582.2	0.96053
582.4	0.96089
582.6	0.96145
582.8	0.96054
583.0	0.95991
583.2	0.959
583.4	0.95797
583.6	0.95653
583.8	0.95584
584.0	0.95583
584.2	0.95644
584.4	0.95808
584.6	0.9606
584.8	0.96244
585.0	0.96483
585.2	0.96656
585.4	0.96894
585.6	0.97027
585.8	0.97119
586.0	0.97034
586.2	0.96983
586.4	0.96832
586.6	0.96636
586.8	0.9662
587.0	0.96478
587.2	0.96346
587.4	0.96353
587.6	0.96383
587.8	0.96541
588.0	0.96746
588.2	0.96868
588.4	0.97044
588.6	0.97146
588.8	0.97199
589.0	0.9719
589.2	0.97181
589.4	0.97032
589.6	0.96801
589.8	0.96555
590.0	0.96328
590.2	0.96136
590.4	0.95991
590.6	0.95953
590.8	0.95876
591.0	0.95903
591.2	0.95994
591.4	0.96128
591.6	0.96279
591.8	0.96419
592.0	0.96569
592.2	0.96536
592.4	0.96448
592.6	0.96382
592.8	0.96271
593.0	0.96112
593.2	0.95934
593.4	0.95687
593.6	0.95536
593.8	0.95431
594.0	0.95457
594.2	0.95521
594.4	0.95639
594.6	0.95735
594.8	0.95988
595.0	0.96248
595.2	0.96462
595.4	0.96673
595.6	0.96765
595.8	0.96873
596.0	0.96808
596.2	0.96858
596.4	0.96763
596.6	0.96737
596.8	0.96616
597.0	0.96589
597.2	0.96459
597.4	0.96479
597.6	0.96552
597.8	0.96627
598.0	0.96772
598.2	0.96915
598.4	0.96956
598.6	0.97044
598.8	0.97036
599.0	0.9707
599.2	0.96979
599.4	0.96807
599.6	0.96619
599.8	0.96389
600.0	0.96146
600.2	0.96019
600.4	0.95836
600.6	0.95727
600.8	0.95641
601.0	0.95572
601.2	0.95609
601.4	0.95698
601.6	0.95782
601.8	0.95895
602.0	0.95927
602.2	0.95973
602.4	0.95909
602.6	0.95897
602.8	0.95843
603.0	0.95774
603.2	0.95611
603.4	0.955
603.6	0.95338
603.8	0.95276
604.0	0.95337
604.2	0.95423
604.4	0.95542
604.6	0.95623
604.8	0.95768
605.0	0.95926
605.2	0.96146
605.4	0.96358
605.6	0.96495
605.8	0.96559
606.0	0.96534
606.2	0.96543
606.4	0.96512
606.6	0.96477
606.8	0.96411
607.0	0.9633
607.2	0.96329
607.4	0.96305
607.6	0.96388
607.8	0.96521
608.0	0.96728
608.2	0.9703
608.4	0.97058
608.6	0.97298
608.8	0.97284
609.0	0.9737
609.2	0.97362
609.4	0.97266
609.6	0.97032
609.8	0.96834
610.0	0.96585
610.2	0.96358
610.4	0.96139
610.6	0.96014
610.8	0.95842
611.0	0.95843
611.2	0.95718
611.4	0.95875
611.6	0.95899
611.8	0.96026
612.0	0.96107
612.2	0.96134
612.4	0.962
612.6	0.96198
612.8	0.9609
613.0	0.96084
613.2	0.95864
613.4	0.95658
613.6	0.95553
613.8	0.95277
614.0	0.95143
614.2	0.95064
614.4	0.95022
614.6	0.95109
614.8	0.95154
615.0	0.95304
615.2	0.95361
615.4	0.95592
615.6	0.95829
615.8	0.96013
616.0	0.96199
616.2	0.96243
616.4	0.96283
616.6	0.9626
616.8	0.96155
617.0	0.96123
617.2	0.95921
617.4	0.95828
617.6	0.95779
617.8	0.9572
618.0	0.95614
618.2	0.95724
618.4	0.9581
618.6	0.96095
618.8	0.96268
619.0	0.96504
619.2	0.96645
619.4	0.969
619.6	0.97066
619.8	0.97144
620.0	0.97239
620.2	0.9714
620.4	0.97068
620.6	0.96937
620.8	0.96663
621.0	0.96481
621.2	0.96271
621.4	0.96166
621.6	0.96068
621.8	0.95987
622.0	0.95843
622.2	0.95887
622.4	0.95923
622.6	0.95949
622.8	0.96166
623.0	0.96211
623.2	0.9632
623.4	0.96256
623.6	0.96137
623.8	0.96148
624.0	0.96002
624.2	0.9587
624.4	0.95677
624.6	0.95468
624.8	0.9531
625.0	0.95122
625.2	0.94949
625.4	0.94828
625.6	0.94901
625.8	0.94967
626.0	0.9502
626.2	0.95216
626.4	0.95363
626.6	0.95547
626.8	0.95739
627.0	0.95935
627.2	0.96106
627.4	0.9624
627.6	0.9626
627.8	0.96188
628.0	0.96167
628.2	0.96175
628.4	0.96058
628.6	0.96083
628.8	0.95992
629.0	0.95901
629.2	0.95958
629.4	0.96004
629.6	0.96058
629.8	0.96235
630.0	0.9646
630.2	0.96675
630.4	0.96827
630.6	0.97003
630.8	0.97101
631.0	0.97235
631.2	0.97425
631.4	0.97405
631.6	0.97338
631.8	0.97241
632.0	0.97189
632.2	0.96966
632.4	0.96791
632.6	0.96666
632.8	0.96604
633.0	0.96557
633.2	0.96522
633.4	0.96514
633.6	0.96485
633.8	0.96514
634.0	0.96565
634.2	0.9662
634.4	0.96739
634.6	0.96772
634.8	0.96704
635.0	0.96579
635.2	0.96508
635.4	0.96396
635.6	0.96185
635.8	0.96023
636.0	0.95847
636.2	0.9572
636.4	0.95535
636.6	0.9535
636.8	0.95258
637.0	0.95307
637.2	0.95268
637.4	0.95334
637.6	0.95515
637.8	0.95651
638.0	0.95732
638.2	0.95798
638.4	0.95878
638.6	0.96007
638.8	0.96021
639.0	0.96109
639.2	0.96051
639.4	0.95944
639.6	0.95959
639.8	0.95789
640.0	0.95707
640.2	0.9566
640.4	0.95696
640.6	0.95651
640.8	0.95774
641.0	0.95764
641.2	0.95943
641.4	0.96235
641.6	0.96307
641.8	0.96536
642.0	0.96867
642.2	0.96998
642.4	0.97167
642.6	0.97315
642.8	0.97299
643.0	0.97261
643.2	0.97213
643.4	0.97038
643.6	0.97074
643.8	0.9689
644.0	0.96676
644.2	0.96659
644.4	0.96388
644.6	0.96424
644.8	0.96331
645.0	0.96344
645.2	0.96439
645.4	0.96524
645.6	0.96625
645.8	0.96752
646.0	0.96719
646.2	0.96857
646.4	0.96869
646.6	0.96884
646.8	0.96861
647.0	0.96793
647.2	0.96604
647.4	0.96337
647.6	0.96243
647.8	0.95948
648.0	0.95833
648.2	0.95671
648.4	0.95586
648.6	0.95435
648.8	0.95384
649.0	0.95233
649.2	0.95308
649.4	0.9531
649.6	0.95447
649.8	0.95678
650.0	0.95663
650.2	0.95864
650.4	0.95929
650.6	0.95906
650.8	0.95963
651.0	0.9592
651.2	0.9593
651.4	0.95919
651.6	0.9583
651.8	0.95753
652.0	0.95704
652.2	0.9563
652.4	0.95581
652.6	0.95641
652.8	0.95678
653.0	0.95835
653.2	0.95939
653.4	0.9606
653.6	0.96299
653.8	0.96427
654.0	0.96551
654.2	0.96844
654.4	0.97007
654.6	0.97061
654.8	0.97188
655.0	0.97295
655.2	0.97273
655.4	0.9718
655.6	0.9718
655.8	0.97063
656.0	0.97013
656.2	0.96977
656.4	0.96882
656.6	0.96834
656.8	0.96892
657.0	0.96832
657.2	0.96883
657.4	0.96914
657.6	0.97101
657.8	0.97241
658.0	0.97309
658.2	0.97419
658.4	0.97468
658.6	0.97496
658.8	0.97393
659.0	0.97348
659.2	0.97269
659.4	0.97171
659.6	0.96964
659.8	0.96787
660.0	0.96566
660.2	0.96445
660.4	0.96277
660.6	0.96008
660.8	0.95879
661.0	0.95796
661.2	0.95844
661.4	0.95772
661.6	0.95888
661.8	0.95787
662.0	0.95909
662.2	0.95883
662.4	0.96057
662.6	0.96067
662.8	0.96154
663.0	0.96186
663.2	0.96185
663.4	0.96125
663.6	0.96114
663.8	0.95902
664.0	0.95828
664.2	0.95777
664.4	0.95708
664.6	0.95675
664.8	0.95684
665.0	0.95683
665.2	0.95735
665.4	0.95707
665.6	0.959
665.8	0.95928
666.0	0.96173
666.2	0.96418
666.4	0.96577
666.6	0.96724
666.8	0.96863
667.0	0.97016
667.2	0.96995
667.4	0.97054
667.6	0.971
667.8	0.96977
668.0	0.96985
668.2	0.96905
668.4	0.96771
668.6	0.9668
668.8	0.96518
669.0	0.96502
669.2	0.96367
669.4	0.96512
669.6	0.96528
669.8	0.96698
670.0	0.96738
670.2	0.96826
670.4	0.97027
670.6	0.97116
670.8	0.97223
671.0	0.97372
671.2	0.97409
671.4	0.97507
671.6	0.97574
671.8	0.97512
672.0	0.9746
672.2	0.97281
672.4	0.97143
672.6	0.96861
672.8	0.96842
673.0	0.96762
673.2	0.96658
673.4	0.9649
673.6	0.96456
673.8	0.96378
674.0	0.96346
674.2	0.9635
674.4	0.96411
674.6	0.96502
674.8	0.96605
675.0	0.96682
675.2	0.9683
675.4	0.96879
675.6	0.96915
675.8	0.96952
676.0	0.96923
676.2	0.96845
676.4	0.96763
676.6	0.96587
676.8	0.96477
677.0	0.96284
677.2	0.96158
677.4	0.95975
677.6	0.95817
677.8	0.95746
678.0	0.95653
678.2	0.95673
678.4	0.95667
678.6	0.95756
678.8	0.95853
679.0	0.96032
679.2	0.96208
679.4	0.96383
679.6	0.96633
679.8	0.96781
680.0	0.96821
680.2	0.97024
680.4	0.97073
680.6	0.97195
680.8	0.9722
681.0	0.97184
681.2	0.97155
681.4	0.9709
681.6	0.96994
681.8	0.96863
682.0	0.96758
682.2	0.96726
682.4	0.96585
682.6	0.96537
682.8	0.96527
683.0	0.96611
683.2	0.9662
683.4	0.96782
683.6	0.96938
683.8	0.97091
684.0	0.97158
684.2	0.97349
684.4	0.97563
684.6	0.9765
684.8	0.97782
685.0	0.97892
685.2	0.9789
685.4	0.97879
685.6	0.97799
685.8	0.97717
686.0	0.97574
686.2	0.97387
686.4	0.97312
686.6	0.97083
686.8	0.96952
687.0	0.96772
687.2	0.96703
687.4	0.96609
687.6	0.9656
687.8	0.96607
688.0	0.96561
688.2	0.96636
688.4	0.96735
688.6	0.96803
688.8	0.96907
689.0	0.96927
689.2	0.96982
689.4	0.97014
689.6	0.96982
689.8	0.96982
690.0	0.96902
690.2	0.96839
690.4	0.9669
690.6	0.96561
690.8	0.96391
691.0	0.96281
691.2	0.9613
691.4	0.96042
691.6	0.95936
691.8	0.95925
692.0	0.95909
692.2	0.95904
692.4	0.96017
692.6	0.96108
692.8	0.96228
693.0	0.96369
693.2	0.96484
693.4	0.96679
693.6	0.96798
693.8	0.96842
694.0	0.96956
694.2	0.96987
694.4	0.97045
694.6	0.97023
694.8	0.97018
695.0	0.96956
695.2	0.96808
695.4	0.96769
695.6	0.96731
695.8	0.9664
696.0	0.96603
696.2	0.966
696.4	0.96619
696.6	0.96646
696.8	0.96688
697.0	0.96844
697.2	0.97018
697.4	0.97084
697.6	0.97249
697.8	0.9741
698.0	0.97502
698.2	0.97637
698.4	0.97752
698.6	0.97777
698.8	0.97816
699.0	0.9781
699.2	0.97635
699.4	0.97552
699.6	0.97482
699.8	0.97269
700.0	0.97205
700.2	0.97059
700.4	0.96826
700.6	0.96758
700.8	0.96685
701.0	0.96561
701.2	0.96495
701.4	0.96493
701.6	0.96497
701.8	0.96525
702.0	0.96562
702.2	0.96648
702.4	0.96691
702.6	0.96788
702.8	0.96784
703.0	0.96849
703.2	0.96867
703.4	0.96859
703.6	0.96753
703.8	0.96744
704.0	0.96589
704.2	0.96367
704.4	0.96244
704.6	0.96059
704.8	0.95925
705.0	0.9579
705.2	0.95597
705.4	0.95477
705.6	0.95437
705.8	0.95347
706.0	0.95368
706.2	0.95415
706.4	0.95431
706.6	0.95514
706.8	0.95619
707.0	0.95698
707.2	0.95864
707.4	0.95962
707.6	0.9608
707.8	0.96183
708.0	0.96218
708.2	0.96297
708.4	0.9634
708.6	0.96303
708.8	0.96277
709.0	0.96254
709.2	0.96165
709.4	0.96186
709.6	0.9605
709.8	0.96002
710.0	0.96032
710.2	0.95999
710.4	0.95975
710.6	0.96107
710.8	0.96189
711.0	0.96256
711.2	0.96438
711.4	0.96591
711.6	0.96782
711.8	0.96942
712.0	0.97134
712.2	0.97262
712.4	0.97338
712.6	0.97491
712.8	0.97569
713.0	0.97588
713.2	0.97587
713.4	0.97459
713.6	0.97387
713.8	0.97357
714.0	0.97217
714.2	0.97058
714.4	0.96964
714.6	0.96846
714.8	0.96739
715.0	0.9666
715.2	0.96658
715.4	0.96592
715.6	0.96654
715.8	0.96693
716.0	0.96816
716.2	0.96868
716.4	0.97009
716.6	0.97103
716.8	0.97275
717.0	0.97411
717.2	0.97444
717.4	0.97506
717.6	0.97556
717.8	0.97563
718.0	0.97536
718.2	0.97402
718.4	0.97238
718.6	0.97106
718.8	0.96953
719.0	0.9668
719.2	0.96533
719.4	0.96355
719.6	0.96208
719.8	0.96005
720.0	0.95903
720.2	0.95885
720.4	0.95833
720.6	0.95833
720.8	0.95868
721.0	0.95996
721.2	0.96097
721.4	0.96174
721.6	0.96322
721.8	0.96443
722.0	0.96611
722.2	0.96646
722.4	0.96769
722.6	0.96875
722.8	0.96805
723.0	0.96902
723.2	0.96887
723.4	0.96853
723.6	0.96761
723.8	0.9665
724.0	0.96599
724.2	0.96512
724.4	0.96432
724.6	0.9633
724.8	0.96248
725.0	0.96278
725.2	0.96252
725.4	0.96244
725.6	0.96324
725.8	0.96412
726.0	0.96534
726.2	0.96637
726.4	0.9674
726.6	0.96982
726.8	0.97115
727.0	0.97188
727.2	0.97293
727.4	0.97329
727.6	0.97432
727.8	0.97386
728.0	0.97393
728.2	0.97429
728.4	0.97289
728.6	0.97275
728.8	0.97182
729.0	0.97118
729.2	0.96985
729.4	0.9693
729.6	0.96865
729.8	0.96797
730.0	0.96778
730.2	0.96811
730.4	0.96801
730.6	0.96857
730.8	0.96896
731.0	0.96959
731.2	0.97036
731.4	0.9713
731.6	0.97152
731.8	0.97226
732.0	0.97244
732.2	0.97205
732.4	0.97206
732.6	0.97118
732.8	0.97052
733.0	0.9694
733.2	0.96825
733.4	0.96678
733.6	0.96468
733.8	0.96307
734.0	0.96233
734.2	0.96085
734.4	0.96
734.6	0.95921
734.8	0.95923
735.0	0.95857
735.2	0.9586
735.4	0.9592
735.6	0.96059
735.8	0.96111
736.0	0.96229
736.2	0.96329
736.4	0.96475
736.6	0.96589
736.8	0.96708
737.0	0.96825
737.2	0.96815
737.4	0.96772
737.6	0.96772
737.8	0.96731
738.0	0.96609
738.2	0.96536
738.4	0.96365
738.6	0.96306
738.8	0.96123
739.0	0.96053
739.2	0.95962
739.4	0.95837
739.6	0.95803
739.8	0.95835
740.0	0.9591
740.2	0.95957
740.4	0.96054
740.6	0.96257
740.8	0.96416
741.0	0.96514
741.2	0.96696
741.4	0.96854
741.6	0.97057
741.8	0.97133
742.0	0.97337
742.2	0.97386
742.4	0.97407
742.6	0.97452
742.8	0.9739
743.0	0.9738
743.2	0.97316
743.4	0.97186
743.6	0.97174
743.8	0.97115
744.0	0.97037
744.2	0.96931
744.4	0.96825
744.6	0.96861
744.8	0.96846
745.0	0.96995
745.2	0.97031
745.4	0.97088
745.6	0.97244
745.8	0.97331
746.0	0.97443
746.2	0.9758
746.4	0.97628
746.6	0.97941
746.8	0.97896
747.0	0.97894
747.2	0.97917
747.4	0.97902
747.6	0.9786
747.8	0.97639
748.0	0.97517
748.2	0.97401
748.4	0.97243
748.6	0.97152
748.8	0.96967
749.0	0.9681
749.2	0.96745
749.4	0.96583
749.6	0.96601
749.8	0.9655
750.0	0.96522
750.2	0.96597
750.4	0.9664
750.6	0.96753
750.8	0.96748
751.0	0.96826
751.2	0.96813
751.4	0.96812
751.6	0.96748
751.8	0.9678
752.0	0.96752
752.2	0.96641
752.4	0.96506
752.6	0.96423
752.8	0.96299
753.0	0.96161
753.2	0.96044
753.4	0.95969
753.6	0.95925
753.8	0.95958
754.0	0.95932
754.2	0.95948
754.4	0.96032
754.6	0.9615
754.8	0.96271
755.0	0.96351
755.2	0.96518
755.4	0.96604
755.6	0.96649
755.8	0.96751
756.0	0.96727
756.2	0.9673
756.4	0.96691
756.6	0.96611
756.8	0.96498
757.0	0.96416
757.2	0.96272
757.4	0.96213
757.6	0.96168
757.8	0.96165
758.0	0.96239
758.2	0.96334
758.4	0.96417
758.6	0.96645
758.8	0.96775
759.0	0.96976
759.2	0.97108
759.4	0.97321
759.6	0.97458
759.8	0.97489
760.0	0.97381
760.2	0.97403
760.4	0.97213
760.6	0.97021
760.8	0.96875
761.0	0.96797
761.2	0.96689
761.4	0.96626
761.6	0.96739
761.8	0.96858
762.0	0.97163
762.2	0.97304
762.4	0.97601
762.6	0.97635
762.8	0.97688
763.0	0.97328
763.2	0.97154
763.4	0.96472
763.6	0.9624
763.8	0.95596
764.0	0.95681
764.2	0.95781
764.4	0.96294
764.6	0.96428
764.8	0.94901
765.0	0.89954
765.2	0.81299
765.4	0.66687
765.6	0.49659
765.8	0.343
766.0	0.22473
766.2	0.14465
766.4	0.09306
766.6	0.06022
766.8	0.03961
767.0	0.02654
767.2	0.01812
767.4	0.0126
767.6	0.00889
767.8	0.00636
768.0	0.00455
768.2	0.00337
768.4	0.0025
768.6	0.00188
768.8	0.00143
769.0	0.0011
769.2	8.3282e-04
769.4	6.5105e-04
769.6	5.0577e-04
769.8	4.068e-04
770.0	3.2262e-04
770.2	2.6118e-04
770.4	2.1078e-04
770.6	1.7285e-04
770.8	1.4251e-04
771.0	1.1749e-04
771.2	9.7825e-05
771.4	8.169e-05
771.6	6.8005e-05
771.8	5.6184e-05
772.0	4.746e-05
772.2	4.0381e-05
772.4	3.4482e-05
772.6	2.9719e-05
772.8	2.5614e-05
773.0	2.2014e-05
773.2	1.9022e-05
773.4	1.6721e-05
773.6	1.4698e-05
773.8	1.3018e-05
774.0	1.1553e-05
774.2	1.0191e-05
774.4	8.8725e-06
774.6	7.8992e-06
774.8	7.0896e-06
775.0	6.3875e-06
775.2	5.8182e-06
775.4	5.2996e-06
775.6	4.8009e-06
775.8	4.3549e-06
776.0	3.9844e-06
776.2	3.6454e-06
776.4	3.3416e-06
776.6	3.0648e-06
776.8	2.8203e-06
777.0	2.6155e-06
777.2	2.4311e-06
777.4	2.2614e-06
777.6	2.1187e-06
777.8	2.0203e-06
778.0	1.9266e-06
778.2	1.8382e-06
778.4	1.7429e-06
778.6	1.6238e-06
778.8	1.5129e-06
779.0	1.4589e-06
779.2	1.4195e-06
779.4	1.3823e-06
779.6	1.3486e-06
779.8	1.3031e-06
780.0	1.2548e-06
780.2	1.2088e-06
780.4	1.1659e-06
780.6	1.1246e-06
780.8	1.0527e-06
781.0	1.0015e-06
781.2	1.0215e-06
781.4	1.042e-06
781.6	1.0285e-06
781.8	1.0057e-06
782.0	9.9378e-07
782.2	1.005e-06
782.4	9.4456e-07
782.6	8.6849e-07
782.8	8.3193e-07
783.0	8.7885e-07
783.2	9.2842e-07
783.4	9.5448e-07
783.6	9.7327e-07
783.8	9.8545e-07
784.0	9.9777e-07
784.2	1.0173e-06
784.4	1.0394e-06
784.6	1.0417e-06
784.8	9.9588e-07
785.0	9.7508e-07
785.2	9.6213e-07
785.4	9.5749e-07
785.6	9.7402e-07
785.8	9.9083e-07
786.0	1.0573e-06
786.2	1.1308e-06
786.4	1.1727e-06
786.6	1.2161e-06
786.8	1.2622e-06
787.0	1.3104e-06
787.2	1.363e-06
787.4	1.4242e-06
787.6	1.4381e-06
787.8	1.4352e-06
788.0	1.4571e-06
788.2	1.5478e-06
788.4	1.6441e-06
788.6	1.7057e-06
788.8	1.774e-06
789.0	1.8898e-06
789.2	2.0132e-06
789.4	2.1628e-06
789.6	2.3287e-06
789.8	2.4855e-06
790.0	2.6031e-06
790.2	2.7804e-06
790.4	2.9909e-06
790.6	3.2258e-06
790.8	3.5045e-06
791.0	3.8072e-06
791.2	4.0827e-06
791.4	4.4028e-06
791.6	4.8752e-06
791.8	5.3983e-06
792.0	5.9806e-06
792.2	6.6266e-06
792.4	7.3511e-06
792.6	8.1767e-06
792.8	9.1142e-06
793.0	1.0167e-05
793.2	1.1374e-05
793.4	1.2831e-05
793.6	1.4474e-05
793.8	1.6392e-05
794.0	1.8631e-05
794.2	2.1342e-05
794.4	2.4447e-05
794.6	2.8185e-05
794.8	3.2554e-05
795.0	3.7775e-05
795.2	4.4286e-05
795.4	5.2134e-05
795.6	6.1467e-05
795.8	7.2514e-05
796.0	8.5692e-05
796.2	1.0126e-04
796.4	1.2037e-04
796.6	1.4452e-04
796.8	1.7414e-04
797.0	2.116e-04
797.2	2.5964e-04
797.4	3.1687e-04
797.6	3.9004e-04
797.8	4.8786e-04
798.0	6.035e-04
798.2	7.6192e-04
798.4	9.6966e-04
798.6	0.00123
798.8	0.00159
799.0	0.00211
799.2	0.00277
799.4	0.00369
799.6	0.00496
799.8	0.00672
800.0	0.0092
800.2	0.01285
800.4	0.01682
800.6	0.02395
800.8	0.03473
801.0	0.05103
801.2	0.07628
801.4	0.11522
801.6	0.17577
801.8	0.1553
802.0	0.23362
802.2	0.34506
802.4	0.48991
802.6	0.64935
802.8	0.7944
803.0	0.94678
803.2	0.97066
803.4	0.96685
803.6	0.96325
803.8	0.96326
804.0	0.96546
804.2	0.96891
804.4	0.97256
804.6	0.97473
804.8	0.9759
805.0	0.97542
805.2	0.97379
805.4	0.97143
805.6	0.96831
805.8	0.96524
806.0	0.96232
806.2	0.96039
806.4	0.95948
806.6	0.95952
806.8	0.96053
807.0	0.96184
807.2	0.96351
807.4	0.96527
807.6	0.96749
807.8	0.9692
808.0	0.96975
808.2	0.97013
808.4	0.96958
808.6	0.96786
808.8	0.96667
809.0	0.96427
809.2	0.9618
809.4	0.95935
809.6	0.95592
809.8	0.95392
810.0	0.95209
810.2	0.95143
810.4	0.9504
810.6	0.94948
810.8	0.95047
811.0	0.95148
811.2	0.95334
811.4	0.95495
811.6	0.95753
811.8	0.95991
812.0	0.9616
812.2	0.96428
812.4	0.9661
812.6	0.96782
812.8	0.96887
813.0	0.96958
813.2	0.96978
813.4	0.96908
813.6	0.96835
813.8	0.96715
814.0	0.96564
814.2	0.96449
814.4	0.96233
814.6	0.96118
814.8	0.96033
815.0	0.95916
815.2	0.95862
815.4	0.95863
815.6	0.95926
815.8	0.95992
816.0	0.9606
816.2	0.96239
816.4	0.96388
816.6	0.96561
816.8	0.96819
817.0	0.96973
817.2	0.97179
817.4	0.97311
817.6	0.97431
817.8	0.97578
818.0	0.97647
818.2	0.97704
818.4	0.97695
818.6	0.97626
818.8	0.97597
819.0	0.97502
819.2	0.97408
819.4	0.97259
819.6	0.97167
819.8	0.97011
820.0	0.96818
820.2	0.9674
820.4	0.96714
820.6	0.96589
820.8	0.96543
821.0	0.96552
821.2	0.96596
821.4	0.96643
821.6	0.96716
821.8	0.96809
822.0	0.96948
822.2	0.97047
822.4	0.97211
822.6	0.97324
822.8	0.97526
823.0	0.97636
823.2	0.9773
823.4	0.97824
823.6	0.97867
823.8	0.9783
824.0	0.97844
824.2	0.97866
824.4	0.97745
824.6	0.97621
824.8	0.97484
825.0	0.97362
825.2	0.9718
825.4	0.97067
825.6	0.96909
825.8	0.96754
826.0	0.96536
826.2	0.96384
826.4	0.96233
826.6	0.96216
826.8	0.9614
827.0	0.96044
827.2	0.95993
827.4	0.96029
827.6	0.96006
827.8	0.96043
828.0	0.96069
828.2	0.96119
828.4	0.9614
828.6	0.96202
828.8	0.96214
829.0	0.9626
829.2	0.96343
829.4	0.96323
829.6	0.96347
829.8	0.96312
830.0	0.96224
830.2	0.96228
830.4	0.96154
830.6	0.96057
830.8	0.95954
831.0	0.95905
831.2	0.95757
831.4	0.95708
831.6	0.95586
831.8	0.95519
832.0	0.95442
832.2	0.95383
832.4	0.95349
832.6	0.953
832.8	0.95284
833.0	0.95317
833.2	0.95345
833.4	0.95379
833.6	0.95488
833.8	0.9558
834.0	0.95678
834.2	0.9577
834.4	0.95878
834.6	0.9603
834.8	0.96093
835.0	0.96232
835.2	0.96303
835.4	0.96393
835.6	0.96468
835.8	0.96529
836.0	0.96571
836.2	0.96586
836.4	0.96529
836.6	0.96517
836.8	0.96511
837.0	0.96457
837.2	0.9643
837.4	0.96367
837.6	0.96256
837.8	0.96232
838.0	0.9621
838.2	0.96133
838.4	0.96106
838.6	0.96081
838.8	0.96042
839.0	0.96083
839.2	0.96151
839.4	0.962
839.6	0.96286
839.8	0.964
840.0	0.96491
840.2	0.96557
840.4	0.96681
840.6	0.96824
840.8	0.97005
841.0	0.97113
841.2	0.9719
841.4	0.9733
841.6	0.97384
841.8	0.97467
842.0	0.97539
842.2	0.97589
842.4	0.97622
842.6	0.97614
842.8	0.97569
843.0	0.97516
843.2	0.97466
843.4	0.97398
843.6	0.97322
843.8	0.97179
844.0	0.97081
844.2	0.96954
844.4	0.96838
844.6	0.9669
844.8	0.96583
845.0	0.9647
845.2	0.9639
845.4	0.96347
845.6	0.963
845.8	0.96308
846.0	0.96239
846.2	0.96282
846.4	0.96285
846.6	0.96261
846.8	0.96357
847.0	0.96401
847.2	0.96499
847.4	0.96557
847.6	0.96655
847.8	0.96732
848.0	0.96766
848.2	0.96843
848.4	0.96859
848.6	0.96879
848.8	0.9691
849.0	0.96921
849.2	0.96894
849.4	0.96855
849.6	0.96758
849.8	0.96696
850.0	0.96616
850.2	0.965
850.4	0.96431
850.6	0.96262
850.8	0.96119
851.0	0.95936
851.2	0.95819
851.4	0.95711
851.6	0.95577
851.8	0.95497
852.0	0.95422
852.2	0.95324
852.4	0.9534
852.6	0.9528
852.8	0.95263
853.0	0.95273
853.2	0.95283
853.4	0.95303
853.6	0.95432
853.8	0.95504
854.0	0.95588
854.2	0.95676
854.4	0.95797
854.6	0.9589
854.8	0.96025
855.0	0.96161
855.2	0.96229
855.4	0.96334
855.6	0.96335
855.8	0.9639
856.0	0.96466
856.2	0.96537
856.4	0.96548
856.6	0.96559
856.8	0.96528
857.0	0.96482
857.2	0.965
857.4	0.96454
857.6	0.96401
857.8	0.96346
858.0	0.96276
858.2	0.96183
858.4	0.9613
858.6	0.96069
858.8	0.96053
859.0	0.96011
859.2	0.95997
859.4	0.95977
859.6	0.95986
859.8	0.96062
860.0	0.96051
860.2	0.96107
860.4	0.96202
860.6	0.96252
860.8	0.96368
861.0	0.96444
861.2	0.96562
861.4	0.9669
861.6	0.9683
861.8	0.96928
862.0	0.96999
862.2	0.9712
862.4	0.97169
862.6	0.97321
862.8	0.97395
863.0	0.97439
863.2	0.97489
863.4	0.9751
863.6	0.97523
863.8	0.97521
864.0	0.97482
864.2	0.97509
864.4	0.97448
864.6	0.97438
864.8	0.97331
865.0	0.97326
865.2	0.97196
865.4	0.97193
865.6	0.97168
865.8	0.97125
866.0	0.9709
866.2	0.97013
866.4	0.96996
866.6	0.96996
866.8	0.97027
867.0	0.97032
867.2	0.97089
867.4	0.97086
867.6	0.97131
867.8	0.97213
868.0	0.97254
868.2	0.9738
868.4	0.97402
868.6	0.97458
868.8	0.97538
869.0	0.9759
869.2	0.97616
869.4	0.97684
869.6	0.9774
869.8	0.97776
870.0	0.97712
870.2	0.97731
870.4	0.9775
870.6	0.97689
870.8	0.97659
871.0	0.97608
871.2	0.97573
871.4	0.97514
871.6	0.97408
871.8	0.97315
872.0	0.97219
872.2	0.97143
872.4	0.97049
872.6	0.96929
872.8	0.96758
873.0	0.96662
873.2	0.96642
873.4	0.96568
873.6	0.9651
873.8	0.96432
874.0	0.96386
874.2	0.96319
874.4	0.9632
874.6	0.96284
874.8	0.96313
875.0	0.96336
875.2	0.96363
875.4	0.96406
875.6	0.96441
875.8	0.96502
876.0	0.96565
876.2	0.96615
876.4	0.96677
876.6	0.96702
876.8	0.96794
877.0	0.96843
877.2	0.96841
877.4	0.96898
877.6	0.96928
877.8	0.96932
878.0	0.96882
878.2	0.96866
878.4	0.96898
878.6	0.9688
878.8	0.96806
879.0	0.96777
879.2	0.96731
879.4	0.96663
879.6	0.96603
879.8	0.96578
880.0	0.96507
880.2	0.96432
880.4	0.96427
880.6	0.96396
880.8	0.96319
881.0	0.96273
881.2	0.96303
881.4	0.96245
881.6	0.96298
881.8	0.96275
882.0	0.96325
882.2	0.96343
882.4	0.96398
882.6	0.96534
882.8	0.96527
883.0	0.96629
883.2	0.96725
883.4	0.96807
883.6	0.96881
883.8	0.96933
884.0	0.9701
884.2	0.97155
884.4	0.97205
884.6	0.97288
884.8	0.9735
885.0	0.97372
885.2	0.97429
885.4	0.97443
885.6	0.97466
885.8	0.97488
886.0	0.97446
886.2	0.97483
886.4	0.97469
886.6	0.97394
886.8	0.97366
887.0	0.9733
887.2	0.97292
887.4	0.97272
887.6	0.97243
887.8	0.97137
888.0	0.97151
888.2	0.97094
888.4	0.97108
888.6	0.97029
888.8	0.97009
889.0	0.97011
889.2	0.96988
889.4	0.97022
889.6	0.97029
889.8	0.97031
890.0	0.97034
890.2	0.97062
890.4	0.97122
890.6	0.97172
890.8	0.97236
891.0	0.97264
891.2	0.97203
891.4	0.97334
891.6	0.97387
891.8	0.97482
892.0	0.97473
892.2	0.97444
892.4	0.97465
892.6	0.97509
892.8	0.97515
893.0	0.9747
893.2	0.97448
893.4	0.97452
893.6	0.97348
893.8	0.97293
894.0	0.97243
894.2	0.97172
894.4	0.97092
894.6	0.97014
894.8	0.96907
895.0	0.96839
895.2	0.96742
895.4	0.96683
895.6	0.96602
895.8	0.96498
896.0	0.96424
896.2	0.96374
896.4	0.96298
896.6	0.96294
896.8	0.96206
897.0	0.96247
897.2	0.96243
897.4	0.96215
897.6	0.962
897.8	0.96188
898.0	0.96213
898.2	0.96277
898.4	0.96278
898.6	0.96321
898.8	0.96341
899.0	0.96437
899.2	0.96462
899.4	0.96486
899.6	0.96536
899.8	0.96487
900.0	0.96582
900.2	0.96632
900.4	0.96628
900.6	0.96626
900.8	0.96581
901.0	0.96604
901.2	0.9661
901.4	0.96543
901.6	0.96511
901.8	0.96462
902.0	0.96395
902.2	0.96354
902.4	0.96286
902.6	0.96245
902.8	0.96194
903.0	0.96164
903.2	0.9615
903.4	0.96071
903.6	0.96115
903.8	0.96093
904.0	0.96012
904.2	0.96027
904.4	0.96072
904.6	0.96091
904.8	0.96147
905.0	0.96159
905.2	0.96186
905.4	0.96264
905.6	0.96283
905.8	0.96366
906.0	0.96427
906.2	0.96487
906.4	0.96556
906.6	0.96646
906.8	0.96724
907.0	0.96766
907.2	0.96869
907.4	0.96906
907.6	0.97003
907.8	0.97056
908.0	0.97128
908.2	0.97143
908.4	0.97136
908.6	0.97271
908.8	0.97205
909.0	0.97196
909.2	0.97222
909.4	0.97204
909.6	0.972
909.8	0.97158
910.0	0.97166
910.2	0.97084
910.4	0.97027
910.6	0.9701
910.8	0.96987
911.0	0.96952
911.2	0.96893
911.4	0.96887
911.6	0.96767
911.8	0.96856
912.0	0.96869
912.2	0.96884
912.4	0.96821
912.6	0.96841
912.8	0.96847
913.0	0.96872
913.2	0.96917
913.4	0.96961
913.6	0.97062
913.8	0.97116
914.0	0.9721
914.2	0.97227
914.4	0.97338
914.6	0.97435
914.8	0.97575
915.0	0.97587
915.2	0.97652
915.4	0.97693
915.6	0.97781
915.8	0.97792
916.0	0.97885
916.2	0.97898
916.4	0.97877
916.6	0.97876
916.8	0.97903
917.0	0.97894
917.2	0.97819
917.4	0.97839
917.6	0.97794
917.8	0.97707
918.0	0.97607
918.2	0.97578
918.4	0.97506
918.6	0.97415
918.8	0.97328
919.0	0.97263
919.2	0.97185
919.4	0.97102
919.6	0.96993
919.8	0.96889
920.0	0.9685
920.2	0.96811
920.4	0.9672
920.6	0.96748
920.8	0.96681
921.0	0.96673
921.2	0.96646
921.4	0.96663
921.6	0.96622
921.8	0.96719
922.0	0.9671
922.2	0.96739
922.4	0.9676
922.6	0.96805
922.8	0.96846
923.0	0.96891
923.2	0.96957
923.4	0.97021
923.6	0.97031
923.8	0.97093
924.0	0.97161
924.2	0.97218
924.4	0.97234
924.6	0.97235
924.8	0.972
925.0	0.97209
925.2	0.97226
925.4	0.97171
925.6	0.97158
925.8	0.97094
926.0	0.97088
926.2	0.97074
926.4	0.96958
926.6	0.96871
926.8	0.96887
927.0	0.96773
927.2	0.96723
927.4	0.96614
927.6	0.96553
927.8	0.96549
928.0	0.96426
928.2	0.96387
928.4	0.96336
928.6	0.9631
928.8	0.96258
929.0	0.96219
929.2	0.96227
929.4	0.96196
929.6	0.96194
929.8	0.96206
930.0	0.96239
930.2	0.96325
930.4	0.96359
930.6	0.96325
930.8	0.96461
931.0	0.96535
931.2	0.96545
931.4	0.96536
931.6	0.96822
931.8	0.96846
932.0	0.96914
932.2	0.97033
932.4	0.97166
932.6	0.97146
932.8	0.97276
933.0	0.97268
933.2	0.97365
933.4	0.97484
933.6	0.97355
933.8	0.97541
934.0	0.97484
934.2	0.97746
934.4	0.976
934.6	0.974
934.8	0.97418
935.0	0.97559
935.2	0.97585
935.4	0.97777
935.6	0.9732
935.8	0.97561
936.0	0.97229
936.2	0.9729
936.4	0.97374
936.6	0.97299
936.8	0.97242
937.0	0.97347
937.2	0.97244
937.4	0.97129
937.6	0.97203
937.8	0.97266
938.0	0.97261
938.2	0.97202
938.4	0.97168
938.6	0.97332
938.8	0.97278
939.0	0.97408
939.2	0.97456
939.4	0.97523
939.6	0.97527
939.8	0.97685
940.0	0.97669
940.2	0.97754
940.4	0.97818
940.6	0.97885
940.8	0.9796
941.0	0.98039
941.2	0.98017
941.4	0.98085
941.6	0.98099
941.8	0.98158
942.0	0.98134
942.2	0.98221
942.4	0.98177
942.6	0.98288
942.8	0.98259
943.0	0.97959
943.2	0.98057
943.4	0.98015
943.6	0.98042
943.8	0.97907
944.0	0.97993
944.2	0.97573
944.4	0.97634
944.6	0.9764
944.8	0.97453
945.0	0.97408
945.2	0.97333
945.4	0.97335
945.6	0.97274
945.8	0.97054
946.0	0.97279
946.2	0.96878
946.4	0.96928
946.6	0.96886
946.8	0.96914
947.0	0.96848
947.2	0.96827
947.4	0.96862
947.6	0.96827
947.8	0.96814
948.0	0.96937
948.2	0.9686
948.4	0.96775
948.6	0.96932
948.8	0.96908
949.0	0.96996
949.2	0.97002
949.4	0.97244
949.6	0.96923
949.8	0.97049
950.0	0.97236
950.2	0.97057
950.4	0.97113
950.6	0.97225
950.8	0.97191
951.0	0.97179
951.2	0.97144
951.4	0.97139
951.6	0.97223
951.8	0.97092
952.0	0.97045
952.2	0.97215
952.4	0.96853
952.6	0.96895
952.8	0.96859
953.0	0.96813
953.2	0.96721
953.4	0.96629
953.6	0.96556
953.8	0.96496
954.0	0.96461
954.2	0.96397
954.4	0.96461
954.6	0.96205
954.8	0.96199
955.0	0.9619
955.2	0.9613
955.4	0.96159
955.6	0.961
955.8	0.96179
956.0	0.96122
956.2	0.96164
956.4	0.96188
956.6	0.96247
956.8	0.96152
957.0	0.9628
957.2	0.96304
957.4	0.96362
957.6	0.96435
957.8	0.96501
958.0	0.9663
958.2	0.96626
958.4	0.96669
958.6	0.96788
958.8	0.96861
959.0	0.96851
959.2	0.9694
959.4	0.9702
959.6	0.97079
959.8	0.97149
960.0	0.97167
960.2	0.97211
960.4	0.97186
960.6	0.97254
960.8	0.97283
961.0	0.97217
961.2	0.97206
961.4	0.97173
961.6	0.97153
961.8	0.9716
962.0	0.97137
962.2	0.97069
962.4	0.97038
962.6	0.97005
962.8	0.96946
963.0	0.96945
963.2	0.96904
963.4	0.96897
963.6	0.9689
963.8	0.96833
964.0	0.9679
964.2	0.96763
964.4	0.96703
964.6	0.96837
964.8	0.96738
965.0	0.96813
965.2	0.96845
965.4	0.96817
965.6	0.96852
965.8	0.96943
966.0	0.96974
966.2	0.97089
966.4	0.9706
966.6	0.97105
966.8	0.97161
967.0	0.97289
967.2	0.97365
967.4	0.97414
967.6	0.97518
967.8	0.97534
968.0	0.97633
968.2	0.97678
968.4	0.97737
968.6	0.97772
968.8	0.97816
969.0	0.97854
969.2	0.9784
969.4	0.97887
969.6	0.97907
969.8	0.97888
970.0	0.9793
970.2	0.97909
970.4	0.9782
970.6	0.97822
970.8	0.97804
971.0	0.97739
971.2	0.97743
971.4	0.97704
971.6	0.97618
971.8	0.97557
972.0	0.97539
972.2	0.97471
972.4	0.97452
972.6	0.97426
972.8	0.97396
973.0	0.97337
973.2	0.97315
973.4	0.97253
973.6	0.97241
973.8	0.9718
974.0	0.97217
974.2	0.9718
974.4	0.97149
974.6	0.97155
974.8	0.97166
975.0	0.97142
975.2	0.9724
975.4	0.97206
975.6	0.97266
975.8	0.97236
976.0	0.97263
976.2	0.97309
976.4	0.97348
976.6	0.97356
976.8	0.97433
977.0	0.9744
977.2	0.97429
977.4	0.97436
977.6	0.97473
977.8	0.97476
978.0	0.97449
978.2	0.97518
978.4	0.97494
978.6	0.97437
978.8	0.97422
979.0	0.9744
979.2	0.97329
979.4	0.97314
979.6	0.973
979.8	0.97207
980.0	0.97126
980.2	0.97092
980.4	0.9707
980.6	0.96981
980.8	0.96892
981.0	0.96806
981.2	0.9674
981.4	0.9663
981.6	0.96592
981.8	0.96541
982.0	0.96379
982.2	0.96392
982.4	0.96353
982.6	0.96281
982.8	0.96233
983.0	0.96212
983.2	0.9619
983.4	0.96154
983.6	0.96168
983.8	0.962
984.0	0.96142
984.2	0.96191
984.4	0.96277
984.6	0.96267
984.8	0.96351
985.0	0.96368
985.2	0.96385
985.4	0.96472
985.6	0.96475
985.8	0.96612
986.0	0.96651
986.2	0.96694
986.4	0.96794
986.6	0.96813
986.8	0.96874
987.0	0.96963
987.2	0.97031
987.4	0.97029
987.6	0.97077
987.8	0.97149
988.0	0.97135
988.2	0.9712
988.4	0.97138
988.6	0.97213
988.8	0.97189
989.0	0.97197
989.2	0.97095
989.4	0.97093
989.6	0.97064
989.8	0.97031
990.0	0.97007
990.2	0.96977
990.4	0.96991
990.6	0.96904
990.8	0.96907
991.0	0.96819
991.2	0.96738
991.4	0.96672
991.6	0.96666
991.8	0.96696
992.0	0.96599
992.2	0.96535
992.4	0.96559
992.6	0.9653
992.8	0.96608
993.0	0.96605
993.2	0.96592
993.4	0.96594
993.6	0.96647
993.8	0.96672
994.0	0.96702
994.2	0.96777
994.4	0.96864
994.6	0.96923
994.8	0.9699
995.0	0.97053
995.2	0.97123
995.4	0.97251
995.6	0.97323
995.8	0.97365
996.0	0.9743
996.2	0.9752
996.4	0.9758
996.6	0.97656
996.8	0.97746
997.0	0.97791
997.2	0.97884
997.4	0.98004
997.6	0.98044
997.8	0.98024
998.0	0.981
998.2	0.98125
998.4	0.98083
998.6	0.98125
998.8	0.98153
999.0	0.98169
999.2	0.98107
999.4	0.98102
999.6	0.98053
999.8	0.98041
1000.0	0.97809
1000.2	0.97447
1000.4	0.97435
1000.6	0.97323
1000.8	0.97375
1001.0	0.97351
1001.2	0.97173
1001.4	0.97126
1001.6	0.97115
1001.8	0.97034
1002.0	0.9704
1002.2	0.96993
1002.4	0.96937
1002.6	0.96917
1002.8	0.96899
1003.0	0.96867
1003.2	0.96821
1003.4	0.96868
1003.6	0.96891
1003.8	0.96926
1004.0	0.96911
1004.2	0.96909
1004.4	0.96905
1004.6	0.96991
1004.8	0.96928
1005.0	0.97029
1005.2	0.97136
1005.4	0.97107
1005.6	0.97146
1005.8	0.97264
1006.0	0.97214
1006.2	0.97231
1006.4	0.97307
1006.6	0.97298
1006.8	0.97347
1007.0	0.97356
1007.2	0.97396
1007.4	0.97375
1007.6	0.97378
1007.8	0.97394
1008.0	0.9731
1008.2	0.97244
1008.4	0.97258
1008.6	0.97293
1008.8	0.97317
1009.0	0.97217
1009.2	0.97078
1009.4	0.97034
1009.6	0.97049
1009.8	0.96965
1010.0	0.96927
1010.2	0.96829
1010.4	0.96759
1010.6	0.96713
1010.8	0.96576
1011.0	0.96522
1011.2	0.96492
1011.4	0.96376
1011.6	0.96309
1011.8	0.96284
1012.0	0.96152
1012.2	0.96135
1012.4	0.96153
1012.6	0.96089
1012.8	0.96042
1013.0	0.96063
1013.2	0.96031
1013.4	0.95971
1013.6	0.95955
1013.8	0.9609
1014.0	0.96001
1014.2	0.96135
1014.4	0.96143
1014.6	0.96152
1014.8	0.96179
1015.0	0.96247
1015.2	0.96253
1015.4	0.96247
1015.6	0.9633
1015.8	0.96431
1016.0	0.96436
1016.2	0.96473
1016.4	0.96485
1016.6	0.96627
1016.8	0.96611
1017.0	0.96682
1017.2	0.96711
1017.4	0.9676
1017.6	0.9676
1017.8	0.96826
1018.0	0.96893
1018.2	0.96861
1018.4	0.96909
1018.6	0.96881
1018.8	0.96798
1019.0	0.96824
1019.2	0.96769
1019.4	0.96835
1019.6	0.96802
1019.8	0.96784
1020.0	0.96765
1020.2	0.96771
1020.4	0.96674
1020.6	0.96578
1020.8	0.96642
1021.0	0.96559
1021.2	0.96585
1021.4	0.96577
1021.6	0.96473
1021.8	0.96455
1022.0	0.9656
1022.2	0.96474
1022.4	0.96491
1022.6	0.9642
1022.8	0.96389
1023.0	0.96458
1023.2	0.96384
1023.4	0.9645
1023.6	0.96489
1023.8	0.965
1024.0	0.9654
1024.2	0.96647
1024.4	0.96621
1024.6	0.96699
1024.8	0.96837
1025.0	0.96793
1025.2	0.96722
1025.4	0.96796
1025.6	0.9688
1025.8	0.97007
1026.0	0.97067
1026.2	0.97084
1026.4	0.97283
1026.6	0.97335
1026.8	0.97293
1027.0	0.97318
1027.2	0.97315
1027.4	0.9743
1027.6	0.97441
1027.8	0.97561
1028.0	0.9752
1028.2	0.9748
1028.4	0.97594
1028.6	0.97551
1028.8	0.97588
1029.0	0.97565
1029.2	0.9761
1029.4	0.97594
1029.6	0.97478
1029.8	0.9745
1030.0	0.97481
1030.2	0.97428
1030.4	0.97399
1030.6	0.97371
1030.8	0.9734
1031.0	0.97273
1031.2	0.97267
1031.4	0.97201
1031.6	0.97262
1031.8	0.9708
1032.0	0.97041
1032.2	0.97042
1032.4	0.96869
1032.6	0.96924
1032.8	0.96925
1033.0	0.96844
1033.2	0.96813
1033.4	0.96821
1033.6	0.96783
1033.8	0.96859
1034.0	0.96828
1034.2	0.96844
1034.4	0.9687
1034.6	0.96792
1034.8	0.96853
1035.0	0.96847
1035.2	0.96936
1035.4	0.97055
1035.6	0.97009
1035.8	0.96958
1036.0	0.97041
1036.2	0.97037
1036.4	0.97093
1036.6	0.9724
1036.8	0.97299
1037.0	0.97244
1037.2	0.97372
1037.4	0.97323
1037.6	0.97374
1037.8	0.97272
1038.0	0.9735
1038.2	0.97297
1038.4	0.97382
1038.6	0.97333
1038.8	0.97494
1039.0	0.97317
1039.2	0.9735
1039.4	0.97283
1039.6	0.972
1039.8	0.97174
1040.0	0.97157
1040.2	0.97052
1040.4	0.97096
1040.6	0.97019
1040.8	0.96888
1041.0	0.96895
1041.2	0.96676
1041.4	0.96645
1041.6	0.96688
1041.8	0.96482
1042.0	0.9649
1042.2	0.96296
1042.4	0.96296
1042.6	0.96214
1042.8	0.96126
1043.0	0.96064
1043.2	0.95899
1043.4	0.96007
1043.6	0.96034
1043.8	0.95906
1044.0	0.95835
1044.2	0.95785
1044.4	0.95793
1044.6	0.95816
1044.8	0.95665
1045.0	0.95696
1045.2	0.9579
1045.4	0.95658
1045.6	0.95764
1045.8	0.95738
1046.0	0.95817
1046.2	0.95929
1046.4	0.95892
1046.6	0.95851
1046.8	0.95918
1047.0	0.95928
1047.2	0.95982
1047.4	0.96074
1047.6	0.96013
1047.8	0.96161
1048.0	0.96068
1048.2	0.96182
1048.4	0.96258
1048.6	0.96195
1048.8	0.96187
1049.0	0.96287
1049.2	0.96274
1049.4	0.9639
1049.6	0.96214
1049.8	0.96259
1050.0	0.96418
1050.2	0.96296
1050.4	0.96261
1050.6	0.9635
1050.8	0.96325
1051.0	0.96335
1051.2	0.96289
1051.4	0.96278
1051.6	0.96217
1051.8	0.96277
1052.0	0.96121
1052.2	0.96249
1052.4	0.96157
1052.6	0.96157
1052.8	0.95978
1053.0	0.96032
1053.2	0.95994
1053.4	0.95945
1053.6	0.96002
1053.8	0.95956
1054.0	0.95823
1054.2	0.95867
1054.4	0.95728
1054.6	0.95872
1054.8	0.95839
1055.0	0.95944
1055.2	0.95831
1055.4	0.95994
1055.6	0.95881
1055.8	0.95906
1056.0	0.95909
1056.2	0.95937
1056.4	0.95969
1056.6	0.96105
1056.8	0.96197
1057.0	0.96148
1057.2	0.96348
1057.4	0.96119
1057.6	0.9643
1057.8	0.96514
1058.0	0.96444
1058.2	0.96569
1058.4	0.96573
1058.6	0.96716
1058.8	0.96626
1059.0	0.96817
1059.2	0.96834
1059.4	0.96836
1059.6	0.96928
1059.8	0.96971
1060.0	0.96889
1060.2	0.97007
1060.4	0.97142
1060.6	0.97065
1060.8	0.97272
1061.0	0.9725
1061.2	0.97347
1061.4	0.97266
1061.6	0.97164
1061.8	0.97117
1062.0	0.97255
1062.2	0.97149
1062.4	0.97182
1062.6	0.97299
1062.8	0.97116
1063.0	0.97192
1063.2	0.97023
1063.4	0.97074
1063.6	0.97129
1063.8	0.97096
1064.0	0.97069
1064.2	0.96898
1064.4	0.96828
1064.6	0.96921
1064.8	0.96793
1065.0	0.96878
1065.2	0.96742
1065.4	0.96812
1065.6	0.96932
1065.8	0.96739
1066.0	0.96707
1066.2	0.96778
1066.4	0.96686
1066.6	0.96663
1066.8	0.9672
1067.0	0.96782
1067.2	0.96784
1067.4	0.96811
1067.6	0.96852
1067.8	0.96775
1068.0	0.96925
1068.2	0.97019
1068.4	0.96857
1068.6	0.9709
1068.8	0.97047
1069.0	0.96854
1069.2	0.97004
1069.4	0.97094
1069.6	0.97235
1069.8	0.97155
1070.0	0.9713
1070.2	0.97191
1070.4	0.97339
1070.6	0.97149
1070.8	0.97245
1071.0	0.97339
1071.2	0.97272
1071.4	0.9721
1071.6	0.97183
1071.8	0.97263
1072.0	0.97331
1072.2	0.97168
1072.4	0.97168
1072.6	0.97293
1072.8	0.97227
1073.0	0.97064
1073.2	0.9703
1073.4	0.96978
1073.6	0.97012
1073.8	0.97026
1074.0	0.96771
1074.2	0.96748
1074.4	0.9678
1074.6	0.96573
1074.8	0.96518
1075.0	0.9654
1075.2	0.96471
1075.4	0.96608
1075.6	0.96381
1075.8	0.96211
1076.0	0.96296
1076.2	0.96311
1076.4	0.9626
1076.6	0.96156
1076.8	0.95999
1077.0	0.96075
1077.2	0.96205
1077.4	0.95928
1077.6	0.9593
1077.8	0.95993
1078.0	0.9601
1078.2	0.95898
1078.4	0.95886
1078.6	0.95891
1078.8	0.95704
1079.0	0.95863
1079.2	0.95978
1079.4	0.95941
1079.6	0.95958
1079.8	0.96159
1080.0	0.95985
1080.2	0.96078
1080.4	0.96229
1080.6	0.96308
1080.8	0.96221
1081.0	0.96125
1081.2	0.96273
1081.4	0.96086
1081.6	0.96164
1081.8	0.96182
1082.0	0.96335
1082.2	0.96334
1082.4	0.96332
1082.6	0.96586
1082.8	0.96468
1083.0	0.96443
1083.2	0.96368
1083.4	0.96355
1083.6	0.96412
1083.8	0.96508
1084.0	0.96388
1084.2	0.9643
1084.4	0.96293
1084.6	0.96363
1084.8	0.964
1085.0	0.96165
1085.2	0.96328
1085.4	0.96129
1085.6	0.96046
1085.8	0.96197
1086.0	0.96106
1086.2	0.96092
1086.4	0.95888
1086.6	0.96034
1086.8	0.96012
1087.0	0.96006
1087.2	0.95742
1087.4	0.95815
1087.6	0.9553
1087.8	0.95842
1088.0	0.95728
1088.2	0.95826
1088.4	0.95697
1088.6	0.95759
1088.8	0.95608
1089.0	0.95552
1089.2	0.95753
1089.4	0.95911
1089.6	0.95698
1089.8	0.9559
1090.0	0.95644
1090.2	0.95743
1090.4	0.95638
1090.6	0.95875
1090.8	0.95686
1091.0	0.95829
1091.2	0.95919
1091.4	0.95816
1091.6	0.96024
1091.8	0.9602
1092.0	0.95944
1092.2	0.96226
1092.4	0.96007
1092.6	0.9659
1092.8	0.96313
1093.0	0.96104
1093.2	0.96223
1093.4	0.9637
1093.6	0.96425
1093.8	0.96533
1094.0	0.96496
1094.2	0.96735
1094.4	0.96866
1094.6	0.96846
1094.8	0.96596
1095.0	0.96689
1095.2	0.96721
1095.4	0.97144
1095.6	0.96782
1095.8	0.97053
1096.0	0.96874
1096.2	0.96619
1096.4	0.96993
1096.6	0.96701
1096.8	0.96693
1097.0	0.96749
1097.2	0.9708
1097.4	0.96551
1097.6	0.9659
1097.8	0.96692
1098.0	0.96811
1098.2	0.96582
1098.4	0.96392
1098.6	0.96725
1098.8	0.96558
1099.0	0.96601
1099.2	0.96602
1099.4	0.96506
1099.6	0.96519
1099.8	0.96589
1100.0	0.96649
1100.2	0.96528
1100.4	0.96431
1100.6	0.96178
1100.8	0.96382
1101.0	0.96519
1101.2	0.96328
1101.4	0.96053
1101.6	0.9619
1101.8	0.96456
1102.0	0.96379
1102.2	0.96368
1102.4	0.96463
1102.6	0.96242
1102.8	0.96447
1103.0	0.96375
1103.2	0.96604
1103.4	0.96446
1103.6	0.9661
1103.8	0.96706
1104.0	0.96341
1104.2	0.9684
1104.4	0.96808
1104.6	0.96634
1104.8	0.96809
1105.0	0.96834
1105.2	0.96702
1105.4	0.96653
1105.6	0.96843
1105.8	0.969
1106.0	0.96804
1106.2	0.96756
1106.4	0.96978
1106.6	0.97134
1106.8	0.96894
1107.0	0.96804
1107.2	0.96795
1107.4	0.97232
1107.6	0.96886
1107.8	0.96798
1108.0	0.96862
1108.2	0.96753
1108.4	0.96811
1108.6	0.96953
1108.8	0.96735
1109.0	0.96918
1109.2	0.96272
1109.4	0.96763
1109.6	0.96431
1109.8	0.96173
1110.0	0.96617
1110.2	0.96384
1110.4	0.9634
1110.6	0.96214
1110.8	0.96096
1111.0	0.95969
1111.2	0.96221
1111.4	0.96112
1111.6	0.95944
1111.8	0.96098
1112.0	0.95682
1112.2	0.95917
1112.4	0.95531
1112.6	0.95586
1112.8	0.95807
1113.0	0.95692
1113.2	0.95372
1113.4	0.95607
1113.6	0.95698
1113.8	0.95528
1114.0	0.95874
1114.2	0.95338
1114.4	0.95285
1114.6	0.9566
1114.8	0.95377
1115.0	0.9552
1115.2	0.95746
1115.4	0.95617
1115.6	0.95636
1115.8	0.95587
1116.0	0.95575
1116.2	0.95605
1116.4	0.95907
1116.6	0.95866
1116.8	0.95776
1117.0	0.9625
1117.2	0.95571
1117.4	0.96
1117.6	0.94984
1117.8	0.95912
1118.0	0.95842
1118.2	0.95349
1118.4	0.96011
1118.6	0.95647
1118.8	0.95968
1119.0	0.95799
1119.2	0.95709
1119.4	0.96254
1119.6	0.94922
1119.8	0.97081
1120.0	0.96969
1120.2	0.96897
1120.4	0.96826
1120.6	0.96755
1120.8	0.96683
1121.0	0.96613
1121.2	0.96627
1121.4	0.96642
1121.6	0.96656
1121.8	0.9667
1122.0	0.96688
1122.2	0.96769
1122.4	0.9685
1122.6	0.96931
1122.8	0.97013
1123.0	0.97095
1123.2	0.97184
1123.4	0.97274
1123.6	0.97364
1123.8	0.97454
1124.0	0.97539
1124.2	0.97348
1124.4	0.97158
1124.6	0.96968
1124.8	0.96778
1125.0	0.9659
1125.2	0.96428
1125.4	0.96265
1125.6	0.96103
1125.8	0.95941
1126.0	0.95789
1126.2	0.95896
1126.4	0.96004
1126.6	0.96111
1126.8	0.96219
1127.0	0.96324
1127.2	0.9626
1127.4	0.96196
1127.6	0.96132
1127.8	0.96068
1128.0	0.96013
1128.2	0.96126
1128.4	0.96239
1128.6	0.96353
1128.8	0.96467
1129.0	0.96584
1129.2	0.96797
1129.4	0.97011
1129.6	0.97225
1129.8	0.97439
1130.0	0.97647
1130.2	0.97577
1130.4	0.97507
1130.6	0.97437
1130.8	0.97367
1131.0	0.97303
1131.2	0.97352
1131.4	0.97401
1131.6	0.9745
1131.8	0.97499
1132.0	0.97547
1132.2	0.97573
1132.4	0.976
1132.6	0.97626
1132.8	0.97652
1133.0	0.9768
1133.2	0.97763
1133.4	0.97846
1133.6	0.9793
1133.8	0.98013
1134.0	0.98098
1134.2	0.9821
1134.4	0.98322
1134.6	0.98434
1134.8	0.98546
1135.0	0.98649
1135.2	0.98465
1135.4	0.98282
1135.6	0.98099
1135.8	0.97917
1136.0	0.97738
1136.2	0.9779
1136.4	0.97843
1136.6	0.97895
1136.8	0.97947
1137.0	0.97995
1137.2	0.97944
1137.4	0.97893
1137.6	0.97842
1137.8	0.97791
1138.0	0.97739
1138.2	0.97668
1138.4	0.97596
1138.6	0.97525
1138.8	0.97453
1139.0	0.97383
1139.2	0.97388
1139.4	0.97393
1139.6	0.97398
1139.8	0.97403
1140.0	0.97409
1140.2	0.97429
1140.4	0.97448
1140.6	0.97467
1140.8	0.97487
1141.0	0.97507
1141.2	0.9757
1141.4	0.97632
1141.6	0.97694
1141.8	0.97756
1142.0	0.97818
1142.2	0.97822
1142.4	0.97826
1142.6	0.9783
1142.8	0.97834
1143.0	0.97838
1143.2	0.97844
1143.4	0.9785
1143.6	0.97857
1143.8	0.97863
1144.0	0.97871
1144.2	0.97947
1144.4	0.98024
1144.6	0.98101
1144.8	0.98177
1145.0	0.98253
1145.2	0.98265
1145.4	0.98277
1145.6	0.98289
1145.8	0.983
1146.0	0.9831
1146.2	0.9828
1146.4	0.9825
1146.6	0.98219
1146.8	0.98189
1147.0	0.98159
1147.2	0.98131
1147.4	0.98103
1147.6	0.98075
1147.8	0.98047
1148.0	0.98019
1148.2	0.97995
1148.4	0.97972
1148.6	0.97948
1148.8	0.97925
1149.0	0.97898
1149.2	0.97808
1149.4	0.97718
1149.6	0.97628
1149.8	0.97539
1150.0	0.9745
1150.2	0.97411
1150.4	0.97371
1150.6	0.97331
1150.8	0.97292
1151.0	0.97252
1151.2	0.97205
1151.4	0.97157
1151.6	0.97109
1151.8	0.97062
1152.0	0.97012
1152.2	0.96919
1152.4	0.96827
1152.6	0.96734
1152.8	0.96641
1153.0	0.96551
1153.2	0.9654
1153.4	0.9653
1153.6	0.96519
1153.8	0.96508
1154.0	0.96498
1154.2	0.96596
1154.4	0.96694
1154.6	0.96792
1154.8	0.96891
1155.0	0.96984
1155.2	0.96965
1155.4	0.96946
1155.6	0.96927
1155.8	0.96909
1156.0	0.9689
1156.2	0.96881
1156.4	0.96871
1156.6	0.96861
1156.8	0.96852
1157.0	0.96843
1157.2	0.9688
1157.4	0.96918
1157.6	0.96955
1157.8	0.96992
1158.0	0.9703
1158.2	0.97071
1158.4	0.97112
1158.6	0.97153
1158.8	0.97193
1159.0	0.97232
1159.2	0.97189
1159.4	0.97146
1159.6	0.97103
1159.8	0.97061
1160.0	0.97018
1160.2	0.9699
1160.4	0.96962
1160.6	0.96933
1160.8	0.96905
1161.0	0.96878
1161.2	0.96864
1161.4	0.9685
1161.6	0.96836
1161.8	0.96822
1162.0	0.96807
1162.2	0.96747
1162.4	0.96687
1162.6	0.96627
1162.8	0.96567
1163.0	0.96508
1163.2	0.96472
1163.4	0.96436
1163.6	0.964
1163.8	0.96364
1164.0	0.96328
1164.2	0.96313
1164.4	0.96298
1164.6	0.96282
1164.8	0.96267
1165.0	0.9625
1165.2	0.96214
1165.4	0.96179
1165.6	0.96143
1165.8	0.96107
1166.0	0.96072
1166.2	0.96065
1166.4	0.96058
1166.6	0.96052
1166.8	0.96045
1167.0	0.96039
1167.2	0.9606
1167.4	0.9608
1167.6	0.96101
1167.8	0.96121
1168.0	0.96142
1168.2	0.96171
1168.4	0.96201
1168.6	0.9623
1168.8	0.96259
1169.0	0.9629
1169.2	0.96349
1169.4	0.96408
1169.6	0.96467
1169.8	0.96525
1170.0	0.96586
1170.2	0.967
1170.4	0.96814
1170.6	0.96928
1170.8	0.97043
1171.0	0.97155
1171.2	0.97167
1171.4	0.97178
1171.6	0.9719
1171.8	0.97201
1172.0	0.97214
1172.2	0.97288
1172.4	0.97363
1172.6	0.97438
1172.8	0.97512
1173.0	0.97585
1173.2	0.97607
1173.4	0.9763
1173.6	0.97652
1173.8	0.97675
1174.0	0.97697
1174.2	0.97716
1174.4	0.97735
1174.6	0.97754
1174.8	0.97773
1175.0	0.97789
1175.2	0.9772
1175.4	0.97651
1175.6	0.97582
1175.8	0.97513
1176.0	0.97446
1176.2	0.97468
1176.4	0.97491
1176.6	0.97514
1176.8	0.97536
1177.0	0.97558
1177.2	0.97511
1177.4	0.97463
1177.6	0.97415
1177.8	0.97367
1178.0	0.9732
1178.2	0.9729
1178.4	0.9726
1178.6	0.97231
1178.8	0.97201
1179.0	0.97173
1179.2	0.97195
1179.4	0.97216
1179.6	0.97238
1179.8	0.97259
1180.0	0.97281
1180.2	0.97308
1180.4	0.97336
1180.6	0.97363
1180.8	0.9739
1181.0	0.97418
1181.2	0.97453
1181.4	0.97488
1181.6	0.97522
1181.8	0.97557
1182.0	0.97591
1182.2	0.97597
1182.4	0.97603
1182.6	0.9761
1182.8	0.97616
1183.0	0.97623
1183.2	0.97668
1183.4	0.97714
1183.6	0.97759
1183.8	0.97805
1184.0	0.97852
1184.2	0.9796
1184.4	0.98069
1184.6	0.98179
1184.8	0.98288
1185.0	0.98396
1185.2	0.98392
1185.4	0.98388
1185.6	0.98384
1185.8	0.9838
1186.0	0.98377
1186.2	0.98388
1186.4	0.984
1186.6	0.98411
1186.8	0.98422
1187.0	0.98435
1187.2	0.98469
1187.4	0.98503
1187.6	0.98537
1187.8	0.98572
1188.0	0.98605
1188.2	0.98616
1188.4	0.98627
1188.6	0.98638
1188.8	0.98649
1189.0	0.98655
1189.2	0.98537
1189.4	0.98418
1189.6	0.983
1189.8	0.98182
1190.0	0.98067
1190.2	0.98023
1190.4	0.97978
1190.6	0.97934
1190.8	0.97889
1191.0	0.97845
1191.2	0.97792
1191.4	0.9774
1191.6	0.97688
1191.8	0.97636
1192.0	0.97584
1192.2	0.97553
1192.4	0.97523
1192.6	0.97492
1192.8	0.97461
1193.0	0.9743
1193.2	0.97398
1193.4	0.97365
1193.6	0.97332
1193.8	0.97299
1194.0	0.97267
1194.2	0.97243
1194.4	0.97219
1194.6	0.97196
1194.8	0.97172
1195.0	0.97149
1195.2	0.97162
1195.4	0.97176
1195.6	0.97189
1195.8	0.97202
1196.0	0.97216
1196.2	0.97255
1196.4	0.97294
1196.6	0.97334
1196.8	0.97373
1197.0	0.97411
1197.2	0.97416
1197.4	0.97422
1197.6	0.97427
1197.8	0.97432
1198.0	0.97438
1198.2	0.97446
1198.4	0.97454
1198.6	0.97462
1198.8	0.9747
1199.0	0.97481
1199.2	0.97552
1199.4	0.97622
1199.6	0.97693
1199.8	0.97764
1200.0	0.97832
1200.2	0.97844
1200.4	0.97855
1200.6	0.97867
1200.8	0.97879
1201.0	0.97891
1201.2	0.97871
1201.4	0.97852
1201.6	0.97832
1201.8	0.97813
1202.0	0.97793
1202.2	0.97759
1202.4	0.97726
1202.6	0.97693
1202.8	0.9766
1203.0	0.97626
1203.2	0.97568
1203.4	0.97511
1203.6	0.97454
1203.8	0.97397
1204.0	0.9734
1204.2	0.97309
1204.4	0.97277
1204.6	0.97245
1204.8	0.97214
1205.0	0.97182
1205.2	0.97159
1205.4	0.97135
1205.6	0.97111
1205.8	0.97087
1206.0	0.97063
1206.2	0.97021
1206.4	0.9698
1206.6	0.96939
1206.8	0.96897
1207.0	0.96856
1207.2	0.96823
1207.4	0.9679
1207.6	0.96757
1207.8	0.96724
1208.0	0.96692
1208.2	0.96687
1208.4	0.96681
1208.6	0.96676
1208.8	0.96671
1209.0	0.96665
1209.2	0.96658
1209.4	0.9665
1209.6	0.96643
1209.8	0.96636
1210.0	0.9663
1210.2	0.96655
1210.4	0.9668
1210.6	0.96706
1210.8	0.96731
1211.0	0.96757
1211.2	0.96806
1211.4	0.96855
1211.6	0.96904
1211.8	0.96953
1212.0	0.97002
1212.2	0.97033
1212.4	0.97064
1212.6	0.97094
1212.8	0.97125
1213.0	0.97157
1213.2	0.97203
1213.4	0.9725
1213.6	0.97296
1213.8	0.97343
1214.0	0.97389
1214.2	0.97414
1214.4	0.97439
1214.6	0.97464
1214.8	0.97488
1215.0	0.97513
1215.2	0.97536
1215.4	0.97559
1215.6	0.97582
1215.8	0.97605
1216.0	0.97627
1216.2	0.97622
1216.4	0.97617
1216.6	0.97612
1216.8	0.97607
1217.0	0.97602
1217.2	0.97599
1217.4	0.97595
1217.6	0.97591
1217.8	0.97587
1218.0	0.97581
1218.2	0.97506
1218.4	0.97432
1218.6	0.97357
1218.8	0.97283
1219.0	0.97213
1219.2	0.97258
1219.4	0.97302
1219.6	0.97346
1219.8	0.9739
1220.0	0.97433
1220.2	0.97346
1220.4	0.9726
1220.6	0.97173
1220.8	0.97087
1221.0	0.97003
1221.2	0.96979
1221.4	0.96955
1221.6	0.96931
1221.8	0.96907
1222.0	0.96884
1222.2	0.96915
1222.4	0.96946
1222.6	0.96977
1222.8	0.97008
1223.0	0.9704
1223.2	0.97099
1223.4	0.97157
1223.6	0.97216
1223.8	0.97275
1224.0	0.97332
1224.2	0.97319
1224.4	0.97306
1224.6	0.97294
1224.8	0.97281
1225.0	0.9727
1225.2	0.97313
1225.4	0.97356
1225.6	0.974
1225.8	0.97443
1226.0	0.97487
1226.2	0.97536
1226.4	0.97585
1226.6	0.97634
1226.8	0.97684
1227.0	0.97731
1227.2	0.97742
1227.4	0.97752
1227.6	0.97762
1227.8	0.97772
1228.0	0.97784
1228.2	0.97857
1228.4	0.97931
1228.6	0.98004
1228.8	0.98078
1229.0	0.9815
1229.2	0.98173
1229.4	0.98197
1229.6	0.9822
1229.8	0.98243
1230.0	0.98267
1230.2	0.98302
1230.4	0.98337
1230.6	0.98372
1230.8	0.98407
1231.0	0.98438
1231.2	0.98391
1231.4	0.98344
1231.6	0.98297
1231.8	0.9825
1232.0	0.98205
1232.2	0.98191
1232.4	0.98177
1232.6	0.98163
1232.8	0.98149
1233.0	0.98135
1233.2	0.98105
1233.4	0.98075
1233.6	0.98045
1233.8	0.98014
1234.0	0.97983
1234.2	0.97925
1234.4	0.97868
1234.6	0.9781
1234.8	0.97753
1235.0	0.97694
1235.2	0.9761
1235.4	0.97525
1235.6	0.97441
1235.8	0.97357
1236.0	0.97274
1236.2	0.97251
1236.4	0.97229
1236.6	0.97206
1236.8	0.97183
1237.0	0.9716
1237.2	0.9711
1237.4	0.97061
1237.6	0.97012
1237.8	0.96963
1238.0	0.96916
1238.2	0.96905
1238.4	0.96894
1238.6	0.96883
1238.8	0.96872
1239.0	0.96863
1239.2	0.9692
1239.4	0.96978
1239.6	0.97035
1239.8	0.97092
1240.0	0.97145
1240.2	0.97111
1240.4	0.97078
1240.6	0.97044
1240.8	0.9701
1241.0	0.9698
1241.2	0.97032
1241.4	0.97084
1241.6	0.97136
1241.8	0.97188
1242.0	0.97239
1242.2	0.97264
1242.4	0.97289
1242.6	0.97314
1242.8	0.97339
1243.0	0.97364
1243.2	0.97365
1243.4	0.97366
1243.6	0.97368
1243.8	0.97369
1244.0	0.97371
1244.2	0.97385
1244.4	0.97399
1244.6	0.97414
1244.8	0.97428
1245.0	0.97442
1245.2	0.97456
1245.4	0.97471
1245.6	0.97485
1245.8	0.97499
1246.0	0.97513
1246.2	0.97507
1246.4	0.97501
1246.6	0.97495
1246.8	0.97489
1247.0	0.97481
1247.2	0.97425
1247.4	0.97368
1247.6	0.97312
1247.8	0.97256
1248.0	0.97202
1248.2	0.97192
1248.4	0.97182
1248.6	0.97173
1248.8	0.97163
1249.0	0.97153
1249.2	0.97124
1249.4	0.97095
1249.6	0.97066
1249.8	0.97037
1250.0	0.97007
1250.2	0.96925
1250.4	0.96843
1250.6	0.96762
1250.8	0.9668
1251.0	0.96599
1251.2	0.96557
1251.4	0.96514
1251.6	0.96472
1251.8	0.96429
1252.0	0.96388
1252.2	0.96412
1252.4	0.96437
1252.6	0.96461
1252.8	0.96485
1253.0	0.96508
1253.2	0.96486
1253.4	0.96465
1253.6	0.96443
1253.8	0.96421
1254.0	0.964
1254.2	0.96386
1254.4	0.96372
1254.6	0.96358
1254.8	0.96343
1255.0	0.96331
1255.2	0.96369
1255.4	0.96406
1255.6	0.96444
1255.8	0.96481
1256.0	0.96518
1256.2	0.96535
1256.4	0.96553
1256.6	0.96571
1256.8	0.96588
1257.0	0.96606
1257.2	0.96634
1257.4	0.96662
1257.6	0.9669
1257.8	0.96719
1258.0	0.96747
1258.2	0.96789
1258.4	0.96832
1258.6	0.96874
1258.8	0.96916
1259.0	0.96959
1259.2	0.97011
1259.4	0.97063
1259.6	0.97115
1259.8	0.97167
1260.0	0.97218
1260.2	0.97233
1260.4	0.97248
1260.6	0.97263
1260.8	0.97278
1261.0	0.97294
1261.2	0.97336
1261.4	0.97377
1261.6	0.97419
1261.8	0.97461
1262.0	0.975
1262.2	0.97476
1262.4	0.97451
1262.6	0.97426
1262.8	0.97401
1263.0	0.97377
1263.2	0.97376
1263.4	0.97374
1263.6	0.97372
1263.8	0.97371
1264.0	0.97367
1264.2	0.97301
1264.4	0.97235
1264.6	0.97169
1264.8	0.97103
1265.0	0.97039
1265.2	0.97044
1265.4	0.9705
1265.6	0.97055
1265.8	0.97061
1266.0	0.97065
1266.2	0.97027
1266.4	0.96989
1266.6	0.96951
1266.8	0.96912
1267.0	0.96874
1267.2	0.9682
1267.4	0.96766
1267.6	0.96711
1267.8	0.96657
1268.0	0.96605
1268.2	0.96618
1268.4	0.96631
1268.6	0.96643
1268.8	0.96656
1269.0	0.96669
1269.2	0.96712
1269.4	0.96754
1269.6	0.96796
1269.8	0.96838
1270.0	0.96879
1270.2	0.96879
1270.4	0.96879
1270.6	0.96878
1270.8	0.96878
1271.0	0.9688
1271.2	0.96959
1271.4	0.97038
1271.6	0.97116
1271.8	0.97195
1272.0	0.97274
1272.2	0.97353
1272.4	0.97431
1272.6	0.9751
1272.8	0.97589
1273.0	0.97666
1273.2	0.97694
1273.4	0.97722
1273.6	0.9775
1273.8	0.97778
1274.0	0.97808
1274.2	0.97872
1274.4	0.97936
1274.6	0.98
1274.8	0.98065
1275.0	0.98127
1275.2	0.98122
1275.4	0.98116
1275.6	0.98111
1275.8	0.98106
1276.0	0.981
1276.2	0.9807
1276.4	0.9804
1276.6	0.9801
1276.8	0.9798
1277.0	0.97953
1277.2	0.98014
1277.4	0.98075
1277.6	0.98136
1277.8	0.98197
1278.0	0.98254
1278.2	0.98213
1278.4	0.98171
1278.6	0.98129
1278.8	0.98088
1279.0	0.98047
1279.2	0.98026
1279.4	0.98005
1279.6	0.97984
1279.8	0.97962
1280.0	0.9794
1280.2	0.97885
1280.4	0.9783
1280.6	0.97774
1280.8	0.97719
1281.0	0.97664
1281.2	0.97614
1281.4	0.97565
1281.6	0.97515
1281.8	0.97465
1282.0	0.97417
1282.2	0.9741
1282.4	0.97404
1282.6	0.97397
1282.8	0.97391
1283.0	0.97383
1283.2	0.97347
1283.4	0.9731
1283.6	0.97274
1283.8	0.97237
1284.0	0.97201
1284.2	0.97166
1284.4	0.97131
1284.6	0.97097
1284.8	0.97062
1285.0	0.97029
1285.2	0.97045
1285.4	0.9706
1285.6	0.97076
1285.8	0.97091
1286.0	0.97105
1286.2	0.97057
1286.4	0.97008
1286.6	0.9696
1286.8	0.96912
1287.0	0.96866
1287.2	0.96888
1287.4	0.96911
1287.6	0.96934
1287.8	0.96956
1288.0	0.96979
1288.2	0.97011
1288.4	0.97043
1288.6	0.97075
1288.8	0.97106
1289.0	0.97138
1289.2	0.97168
1289.4	0.97197
1289.6	0.97226
1289.8	0.97256
1290.0	0.97286
1290.2	0.97352
1290.4	0.97418
1290.6	0.97484
1290.8	0.9755
1291.0	0.97614
1291.2	0.97609
1291.4	0.97604
1291.6	0.97599
1291.8	0.97594
1292.0	0.9759
1292.2	0.9761
1292.4	0.97631
1292.6	0.97652
1292.8	0.97673
1293.0	0.97693
1293.2	0.97692
1293.4	0.9769
1293.6	0.97689
1293.8	0.97687
1294.0	0.97686
1294.2	0.97697
1294.4	0.97708
1294.6	0.97719
1294.8	0.9773
1295.0	0.9774
1295.2	0.97713
1295.4	0.97686
1295.6	0.97658
1295.8	0.97631
1296.0	0.97603
1296.2	0.97508
1296.4	0.97413
1296.6	0.97319
1296.8	0.97224
1297.0	0.97131
1297.2	0.97113
1297.4	0.97095
1297.6	0.97077
1297.8	0.97059
1298.0	0.97041
1298.2	0.96987
1298.4	0.96934
1298.6	0.9688
1298.8	0.96827
1299.0	0.96773
1299.2	0.9673
1299.4	0.96687
1299.6	0.96643
1299.8	0.966
1300.0	0.96556
1300.2	0.9649
1300.4	0.96425
1300.6	0.96359
1300.8	0.96293
1301.0	0.9623
1301.2	0.96216
1301.4	0.96202
1301.6	0.96188
1301.8	0.96175
1302.0	0.96161
1302.2	0.96133
1302.4	0.96104
1302.6	0.96076
1302.8	0.96048
1303.0	0.96022
1303.2	0.96085
1303.4	0.96147
1303.6	0.96209
1303.8	0.96271
1304.0	0.96333
1304.2	0.96376
1304.4	0.96419
1304.6	0.96462
1304.8	0.96504
1305.0	0.96547
1305.2	0.96594
1305.4	0.96641
1305.6	0.96688
1305.8	0.96736
1306.0	0.96781
1306.2	0.96781
1306.4	0.96782
1306.6	0.96782
1306.8	0.96783
1307.0	0.96784
1307.2	0.96808
1307.4	0.96832
1307.6	0.96856
1307.8	0.9688
1308.0	0.96904
1308.2	0.96937
1308.4	0.9697
1308.6	0.97003
1308.8	0.97036
1309.0	0.9707
1309.2	0.97131
1309.4	0.97193
1309.6	0.97254
1309.8	0.97316
1310.0	0.97376
1310.2	0.9736
1310.4	0.97344
1310.6	0.97329
1310.8	0.97313
1311.0	0.97297
1311.2	0.97308
1311.4	0.97319
1311.6	0.9733
1311.8	0.97341
1312.0	0.97352
1312.2	0.97382
1312.4	0.97411
1312.6	0.9744
1312.8	0.97469
1313.0	0.97496
1313.2	0.97432
1313.4	0.97368
1313.6	0.97305
1313.8	0.97241
1314.0	0.97179
1314.2	0.97192
1314.4	0.97205
1314.6	0.97217
1314.8	0.9723
1315.0	0.9724
1315.2	0.97203
1315.4	0.97166
1315.6	0.97128
1315.8	0.97091
1316.0	0.97054
1316.2	0.97048
1316.4	0.97042
1316.6	0.97036
1316.8	0.97029
1317.0	0.97022
1317.2	0.96978
1317.4	0.96935
1317.6	0.96891
1317.8	0.96847
1318.0	0.96804
1318.2	0.96777
1318.4	0.9675
1318.6	0.96723
1318.8	0.96696
1319.0	0.96673
1319.2	0.96732
1319.4	0.96791
1319.6	0.9685
1319.8	0.96909
1320.0	0.96965
1320.2	0.96964
1320.4	0.96962
1320.6	0.9696
1320.8	0.96959
1321.0	0.96959
1321.2	0.97035
1321.4	0.97111
1321.6	0.97187
1321.8	0.97263
1322.0	0.97339
1322.2	0.97366
1322.4	0.97393
1322.6	0.97419
1322.8	0.97446
1323.0	0.97474
1323.2	0.97515
1323.4	0.97556
1323.6	0.97597
1323.8	0.97637
1324.0	0.97678
1324.2	0.97697
1324.4	0.97717
1324.6	0.97736
1324.8	0.97755
1325.0	0.97775
1325.2	0.97791
1325.4	0.97808
1325.6	0.97825
1325.8	0.97841
1326.0	0.97861
1326.2	0.97979
1326.4	0.98096
1326.6	0.98214
1326.8	0.98332
1327.0	0.98449
1327.2	0.98422
1327.4	0.98395
1327.6	0.98369
1327.8	0.98342
1328.0	0.98317
1328.2	0.98324
1328.4	0.98331
1328.6	0.98338
1328.8	0.98346
1329.0	0.98352
1329.2	0.98339
1329.4	0.98326
1329.6	0.98313
1329.8	0.983
1330.0	0.98287
1330.2	0.98277
1330.4	0.98266
1330.6	0.98256
1330.8	0.98246
1331.0	0.98235
1331.2	0.98198
1331.4	0.98162
1331.6	0.98125
1331.8	0.98088
1332.0	0.98052
1332.2	0.98031
1332.4	0.98011
1332.6	0.97991
1332.8	0.9797
1333.0	0.97949
1333.2	0.97891
1333.4	0.97832
1333.6	0.97774
1333.8	0.97716
1334.0	0.97658
1334.2	0.97618
1334.4	0.97577
1334.6	0.97537
1334.8	0.97496
1335.0	0.97455
1335.2	0.97396
1335.4	0.97336
1335.6	0.97277
1335.8	0.97218
1336.0	0.9716
1336.2	0.97175
1336.4	0.9719
1336.6	0.97205
1336.8	0.97221
1337.0	0.97234
1337.2	0.97201
1337.4	0.97168
1337.6	0.97136
1337.8	0.97103
1338.0	0.97073
1338.2	0.97097
1338.4	0.97121
1338.6	0.97145
1338.8	0.97169
1339.0	0.97193
1339.2	0.97285
1339.4	0.97378
1339.6	0.9747
1339.8	0.97562
1340.0	0.97652
1340.2	0.97651
1340.4	0.97651
1340.6	0.97651
1340.8	0.9765
1341.0	0.9765
1341.2	0.97668
1341.4	0.97685
1341.6	0.97703
1341.8	0.9772
1342.0	0.97737
1342.2	0.97721
1342.4	0.97706
1342.6	0.97691
1342.8	0.97675
1343.0	0.9766
1343.2	0.97672
1343.4	0.97685
1343.6	0.97697
1343.8	0.9771
1344.0	0.97721
1344.2	0.977
1344.4	0.97678
1344.6	0.97657
1344.8	0.97635
1345.0	0.97616
1345.2	0.9763
1345.4	0.97644
1345.6	0.97658
1345.8	0.97672
1346.0	0.97686
1346.2	0.9768
1346.4	0.97673
1346.6	0.97667
1346.8	0.97661
1347.0	0.97652
1347.2	0.97596
1347.4	0.97541
1347.6	0.97485
1347.8	0.97429
1348.0	0.97374
1348.2	0.97324
1348.4	0.97274
1348.6	0.97223
1348.8	0.97173
1349.0	0.97126
1349.2	0.97123
1349.4	0.97121
1349.6	0.97118
1349.8	0.97116
1350.0	0.97111
1350.2	0.97042
1350.4	0.96973
1350.6	0.96904
1350.8	0.96835
1351.0	0.96768
1351.2	0.96746
1351.4	0.96724
1351.6	0.96702
1351.8	0.9668
1352.0	0.96658
1352.2	0.96629
1352.4	0.966
1352.6	0.96571
1352.8	0.96541
1353.0	0.96512
1353.2	0.96487
1353.4	0.96462
1353.6	0.96436
1353.8	0.96411
1354.0	0.96388
1354.2	0.96486
1354.4	0.96584
1354.6	0.96682
1354.8	0.9678
1355.0	0.96889
1355.2	0.97336
1355.4	0.97784
1355.6	0.98235
1355.8	0.98688
1356.0	0.99128
1356.2	0.98085
1356.4	0.97052
1356.6	0.96031
1356.8	0.9502
1357.0	0.94073
1357.2	0.94853
1357.4	0.9564
1357.6	0.96432
1357.8	0.97232
1358.0	0.97999
1358.2	0.9793
1358.4	0.97861
1358.6	0.97793
1358.8	0.97724
1359.0	0.97659
1359.2	0.97718
1359.4	0.97777
1359.6	0.97836
1359.8	0.97895
1360.0	0.97952
1360.2	0.97961
1360.4	0.97971
1360.6	0.9798
1360.8	0.9799
1361.0	0.97999
1361.2	0.98001
1361.4	0.98003
1361.6	0.98005
1361.8	0.98007
1362.0	0.98016
1362.2	0.98232
1362.4	0.98449
1362.6	0.98667
1362.8	0.98884
1363.0	0.99094
1363.2	0.98448
1363.4	0.97806
1363.6	0.97168
1363.8	0.96534
1364.0	0.95957
1364.2	0.9708
1364.4	0.98217
1364.6	0.99366
1364.8	1.00000
1365.0	1.00000
1365.2	1.00000
1365.4	0.99989
1365.6	0.99191
1365.8	0.98399
1366.0	0.9763
1366.2	0.97689
1366.4	0.97749
1366.6	0.97809
1366.8	0.97869
1367.0	0.97934
1367.2	0.98117
1367.4	0.98301
1367.6	0.98485
1367.8	0.9867
1368.0	0.98849
1368.2	0.98623
1368.4	0.98398
1368.6	0.98173
1368.8	0.97949
1369.0	0.9772
1369.2	0.97377
1369.4	0.97035
1369.6	0.96695
1369.8	0.96355
1370.0	0.9602
1370.2	0.95959
1370.4	0.95898
1370.6	0.95837
1370.8	0.95776
1371.0	0.9572
1371.2	0.95819
1371.4	0.95918
1371.6	0.96017
1371.8	0.96116
1372.0	0.96215
1372.2	0.96328
1372.4	0.96442
1372.6	0.96556
1372.8	0.96669
1373.0	0.96782
1373.2	0.96825
1373.4	0.96868
1373.6	0.96912
1373.8	0.96955
1374.0	0.97
1374.2	0.97072
1374.4	0.97144
1374.6	0.97216
1374.8	0.97289
1375.0	0.97359
1375.2	0.97321
1375.4	0.97283
1375.6	0.97245
1375.8	0.97208
1376.0	0.97172
1376.2	0.97195
1376.4	0.97219
1376.6	0.97242
1376.8	0.97265
1377.0	0.97289
1377.2	0.97355
1377.4	0.97421
1377.6	0.97487
1377.8	0.97553
1378.0	0.97618
1378.2	0.97669
1378.4	0.97721
1378.6	0.97772
1378.8	0.97823
1379.0	0.97874
1379.2	0.9789
1379.4	0.97906
1379.6	0.97921
1379.8	0.97937
1380.0	0.9795
1380.2	0.97863
1380.4	0.97776
1380.6	0.9769
1380.8	0.97603
1381.0	0.9752
1381.2	0.97717
1381.4	0.97915
1381.6	0.98114
1381.8	0.98312
1382.0	0.98494
1382.2	0.981
1382.4	0.97707
1382.6	0.97317
1382.8	0.96927
1383.0	0.96577
1383.2	0.96941
1383.4	0.97306
1383.6	0.97672
1383.8	0.9804
1384.0	0.98401
1384.2	0.98463
1384.4	0.98525
1384.6	0.98588
1384.8	0.9865
1385.0	0.98706
1385.2	0.98618
1385.4	0.9853
1385.6	0.98443
1385.8	0.98355
1386.0	0.98267
1386.2	0.9814
1386.4	0.98013
1386.6	0.97887
1386.8	0.9776
1387.0	0.97651
1387.2	0.97935
1387.4	0.98221
1387.6	0.98508
1387.8	0.98795
1388.0	0.99076
1388.2	0.98851
1388.4	0.98627
1388.6	0.98403
1388.8	0.9818
1389.0	0.97971
1389.2	0.9809
1389.4	0.9821
1389.6	0.98329
1389.8	0.98449
1390.0	0.98564
1390.2	0.98318
1390.4	0.98073
1390.6	0.97828
1390.8	0.97584
1391.0	0.97345
1391.2	0.97194
1391.4	0.97044
1391.6	0.96894
1391.8	0.96744
1392.0	0.96586
1392.2	0.96017
1392.4	0.95451
1392.6	0.94889
1392.8	0.9433
1393.0	0.93829
1393.2	0.94507
1393.4	0.95189
1393.6	0.95876
1393.8	0.96568
1394.0	0.97259
1394.2	0.97694
1394.4	0.9813
1394.6	0.98568
1394.8	0.99008
1395.0	0.99401
1395.2	0.98752
1395.4	0.98107
1395.6	0.97467
1395.8	0.9683
1396.0	0.96217
1396.2	0.96332
1396.4	0.96446
1396.6	0.96561
1396.8	0.96677
1397.0	0.96792
1397.2	0.96903
1397.4	0.97015
1397.6	0.97127
1397.8	0.97238
1398.0	0.97348
1398.2	0.97363
1398.4	0.97378
1398.6	0.97394
1398.8	0.97409
1399.0	0.97423
1399.2	0.97364
1399.4	0.97305
1399.6	0.97246
1399.8	0.97187
1400.0	0.97132
1400.2	0.97228
1400.4	0.97324
1400.6	0.97421
1400.8	0.97517
1401.0	0.97612
1401.2	0.9754
1401.4	0.97468
1401.6	0.97397
1401.8	0.97325
1402.0	0.97259
1402.2	0.97325
1402.4	0.97391
1402.6	0.97456
1402.8	0.97522
1403.0	0.97586
1403.2	0.97567
1403.4	0.97549
1403.6	0.9753
1403.8	0.97512
1404.0	0.97497
1404.2	0.97555
1404.4	0.97612
1404.6	0.9767
1404.8	0.97728
1405.0	0.9778
1405.2	0.9766
1405.4	0.9754
1405.6	0.97419
1405.8	0.973
1406.0	0.97182
1406.2	0.97195
1406.4	0.97208
1406.6	0.97221
1406.8	0.97234
1407.0	0.97245
1407.2	0.97209
1407.4	0.97173
1407.6	0.97136
1407.8	0.971
1408.0	0.97062
1408.2	0.9693
1408.4	0.96799
1408.6	0.96667
1408.8	0.96536
1409.0	0.9641
1409.2	0.96577
1409.4	0.96744
1409.6	0.96911
1409.8	0.97079
1410.0	0.97235
1410.2	0.97092
1410.4	0.9695
1410.6	0.96808
1410.8	0.96666
1411.0	0.96525
1411.2	0.96451
1411.4	0.96377
1411.6	0.96302
1411.8	0.96228
1412.0	0.96155
1412.2	0.9618
1412.4	0.96204
1412.6	0.96228
1412.8	0.96253
1413.0	0.96278
1413.2	0.96331
1413.4	0.96385
1413.6	0.96438
1413.8	0.96491
1414.0	0.96544
1414.2	0.96584
1414.4	0.96624
1414.6	0.96663
1414.8	0.96703
1415.0	0.96742
1415.2	0.96717
1415.4	0.96693
1415.6	0.96668
1415.8	0.96643
1416.0	0.96619
1416.2	0.96622
1416.4	0.96624
1416.6	0.96627
1416.8	0.96629
1417.0	0.96644
1417.2	0.9692
1417.4	0.97197
1417.6	0.97475
1417.8	0.97754
1418.0	0.98014
1418.2	0.97634
1418.4	0.97255
1418.6	0.96878
1418.8	0.96502
1419.0	0.96141
1419.2	0.96423
1419.4	0.96707
1419.6	0.96991
1419.8	0.97276
1420.0	0.97561
1420.2	0.9758
1420.4	0.97599
1420.6	0.97619
1420.8	0.97638
1421.0	0.97656
1421.2	0.97653
1421.4	0.97649
1421.6	0.97645
1421.8	0.97641
1422.0	0.97636
1422.2	0.97591
1422.4	0.97545
1422.6	0.975
1422.8	0.97455
1423.0	0.97408
1423.2	0.97323
1423.4	0.97238
1423.6	0.97154
1423.8	0.97069
1424.0	0.96988
1424.2	0.97041
1424.4	0.97094
1424.6	0.97148
1424.8	0.97201
1425.0	0.97254
1425.2	0.97276
1425.4	0.97298
1425.6	0.9732
1425.8	0.97342
1426.0	0.97364
1426.2	0.97331
1426.4	0.97299
1426.6	0.97266
1426.8	0.97234
1427.0	0.97203
1427.2	0.97212
1427.4	0.97221
1427.6	0.97229
1427.8	0.97238
1428.0	0.97245
1428.2	0.97208
1428.4	0.97172
1428.6	0.97135
1428.8	0.97099
1429.0	0.97064
1429.2	0.97063
1429.4	0.97062
1429.6	0.97061
1429.8	0.9706
1430.0	0.97056
1430.2	0.96991
1430.4	0.96925
1430.6	0.9686
1430.8	0.96795
1431.0	0.96733
1431.2	0.96752
1431.4	0.96771
1431.6	0.96791
1431.8	0.9681
1432.0	0.96828
1432.2	0.9682
1432.4	0.96811
1432.6	0.96802
1432.8	0.96793
1433.0	0.96786
1433.2	0.96823
1433.4	0.9686
1433.6	0.96897
1433.8	0.96934
1434.0	0.9697
1434.2	0.96983
1434.4	0.96995
1434.6	0.97008
1434.8	0.97021
1435.0	0.97036
1435.2	0.97113
1435.4	0.97189
1435.6	0.97266
1435.8	0.97343
1436.0	0.97418
1436.2	0.97437
1436.4	0.97457
1436.6	0.97477
1436.8	0.97496
1437.0	0.97517
1437.2	0.97576
1437.4	0.97634
1437.6	0.97692
1437.8	0.97751
1438.0	0.97807
1438.2	0.97809
1438.4	0.97811
1438.6	0.97813
1438.8	0.97815
1439.0	0.97818
1439.2	0.97835
1439.4	0.97853
1439.6	0.97871
1439.8	0.97889
1440.0	0.97908
1440.2	0.97962
1440.4	0.98015
1440.6	0.98069
1440.8	0.98123
1441.0	0.98176
1441.2	0.9809
1441.4	0.98004
1441.6	0.97919
1441.8	0.97833
1442.0	0.97753
1442.2	0.97997
1442.4	0.98243
1442.6	0.98489
1442.8	0.98736
1443.0	0.98973
1443.2	0.98798
1443.4	0.98624
1443.6	0.98451
1443.8	0.98277
1444.0	0.98108
1444.2	0.98057
1444.4	0.98005
1444.6	0.97954
1444.8	0.97903
1445.0	0.97843
1445.2	0.97565
1445.4	0.97288
1445.6	0.97011
1445.8	0.96736
1446.0	0.96464
1446.2	0.96719
1446.4	0.96976
1446.6	0.97232
1446.8	0.9749
1447.0	0.97744
1447.2	0.97703
1447.4	0.97662
1447.6	0.97621
1447.8	0.9758
1448.0	0.97539
1448.2	0.97502
1448.4	0.97465
1448.6	0.97429
1448.8	0.97392
1449.0	0.97357
1449.2	0.97371
1449.4	0.97386
1449.6	0.97401
1449.8	0.97415
1450.0	0.97422
1450.2	0.97266
1450.4	0.9711
1450.6	0.96955
1450.8	0.96799
1451.0	0.96648
1451.2	0.96714
1451.4	0.9678
1451.6	0.96846
1451.8	0.96913
1452.0	0.96978
1452.2	0.9701
1452.4	0.97042
1452.6	0.97074
1452.8	0.97106
1453.0	0.97135
1453.2	0.97105
1453.4	0.97076
1453.6	0.97046
1453.8	0.97017
1454.0	0.96988
1454.2	0.97
1454.4	0.97013
1454.6	0.97025
1454.8	0.97037
1455.0	0.9705
1455.2	0.97082
1455.4	0.97115
1455.6	0.97147
1455.8	0.97179
1456.0	0.97211
1456.2	0.97227
1456.4	0.97244
1456.6	0.9726
1456.8	0.97276
1457.0	0.97292
1457.2	0.97274
1457.4	0.97257
1457.6	0.9724
1457.8	0.97222
1458.0	0.97207
1458.2	0.97257
1458.4	0.97306
1458.6	0.97355
1458.8	0.97405
1459.0	0.97454
1459.2	0.97463
1459.4	0.97473
1459.6	0.97483
1459.8	0.97492
1460.0	0.975
1460.2	0.97475
1460.4	0.9745
1460.6	0.97425
1460.8	0.974
1461.0	0.97375
1461.2	0.97398
1461.4	0.97421
1461.6	0.97444
1461.8	0.97467
1462.0	0.97489
1462.2	0.97496
1462.4	0.97503
1462.6	0.9751
1462.8	0.97517
1463.0	0.97523
1463.2	0.97473
1463.4	0.97422
1463.6	0.97372
1463.8	0.97321
1464.0	0.97271
1464.2	0.97243
1464.4	0.97215
1464.6	0.97186
1464.8	0.97158
1465.0	0.97131
1465.2	0.97137
1465.4	0.97144
1465.6	0.9715
1465.8	0.97157
1466.0	0.97161
1466.2	0.97114
1466.4	0.97068
1466.6	0.97021
1466.8	0.96975
1467.0	0.9693
1467.2	0.96955
1467.4	0.9698
1467.6	0.97005
1467.8	0.9703
1468.0	0.9705
1468.2	0.96977
1468.4	0.96905
1468.6	0.96832
1468.8	0.9676
1469.0	0.96689
1469.2	0.96673
1469.4	0.96657
1469.6	0.96641
1469.8	0.96625
1470.0	0.96609
1470.2	0.96551
1470.4	0.96493
1470.6	0.96435
1470.8	0.96377
1471.0	0.96321
1471.2	0.96298
1471.4	0.96275
1471.6	0.96252
1471.8	0.96229
1472.0	0.96207
1472.2	0.96217
1472.4	0.96226
1472.6	0.96236
1472.8	0.96245
1473.0	0.96255
1473.2	0.96236
1473.4	0.96218
1473.6	0.96199
1473.8	0.96181
1474.0	0.96163
1474.2	0.96158
1474.4	0.96154
1474.6	0.9615
1474.8	0.96145
1475.0	0.96143
1475.2	0.96207
1475.4	0.96271
1475.6	0.96334
1475.8	0.96398
1476.0	0.96462
1476.2	0.96483
1476.4	0.96504
1476.6	0.96525
1476.8	0.96547
1477.0	0.96569
1477.2	0.96614
1477.4	0.96658
1477.6	0.96703
1477.8	0.96748
1478.0	0.96793
1478.2	0.96835
1478.4	0.96878
1478.6	0.96921
1478.8	0.96963
1479.0	0.97006
1479.2	0.97036
1479.4	0.97066
1479.6	0.97097
1479.8	0.97127
1480.0	0.97158
1480.2	0.97191
1480.4	0.97225
1480.6	0.97259
1480.8	0.97293
1481.0	0.97326
1481.2	0.9734
1481.4	0.97354
1481.6	0.97368
1481.8	0.97383
1482.0	0.97397
1482.2	0.97421
1482.4	0.97445
1482.6	0.97469
1482.8	0.97494
1483.0	0.97517
1483.2	0.97529
1483.4	0.97541
1483.6	0.97553
1483.8	0.97565
1484.0	0.97576
1484.2	0.97544
1484.4	0.97511
1484.6	0.97478
1484.8	0.97445
1485.0	0.97413
1485.2	0.97409
1485.4	0.97404
1485.6	0.974
1485.8	0.97395
1486.0	0.97391
1486.2	0.97384
1486.4	0.97378
1486.6	0.97372
1486.8	0.97365
1487.0	0.97357
1487.2	0.97286
1487.4	0.97215
1487.6	0.97145
1487.8	0.97074
1488.0	0.97007
1488.2	0.97037
1488.4	0.97067
1488.6	0.97097
1488.8	0.97127
1489.0	0.97156
1489.2	0.97118
1489.4	0.97079
1489.6	0.97041
1489.8	0.97002
1490.0	0.96964
1490.2	0.96934
1490.4	0.96905
1490.6	0.96876
1490.8	0.96846
1491.0	0.96819
1491.2	0.96839
1491.4	0.96858
1491.6	0.96877
1491.8	0.96897
1492.0	0.96914
1492.2	0.96876
1492.4	0.96838
1492.6	0.96799
1492.8	0.96761
1493.0	0.96726
1493.2	0.96768
1493.4	0.9681
1493.6	0.96853
1493.8	0.96895
1494.0	0.96936
1494.2	0.96927
1494.4	0.96918
1494.6	0.9691
1494.8	0.96901
1495.0	0.96894
1495.2	0.96959
1495.4	0.97023
1495.6	0.97088
1495.8	0.97153
1496.0	0.97217
1496.2	0.97236
1496.4	0.97255
1496.6	0.97273
1496.8	0.97292
1497.0	0.97311
1497.2	0.97344
1497.4	0.97377
1497.6	0.97411
1497.8	0.97444
1498.0	0.97477
1498.2	0.97484
1498.4	0.97492
1498.6	0.97499
1498.8	0.97506
1499.0	0.97516
1499.2	0.97567
1499.4	0.97617
1499.6	0.97668
1499.8	0.97719
1500.0	0.97769
1500.2	0.97788
1500.4	0.97807
1500.6	0.97826
1500.8	0.97845
1501.0	0.97865
1501.2	0.97933
1501.4	0.98
1501.6	0.98067
1501.8	0.98134
1502.0	0.982
1502.2	0.98207
1502.4	0.98215
1502.6	0.98223
1502.8	0.9823
1503.0	0.98237
1503.2	0.98228
1503.4	0.98219
1503.6	0.98211
1503.8	0.98202
1504.0	0.98193
1504.2	0.98212
1504.4	0.9823
1504.6	0.98249
1504.8	0.98267
1505.0	0.98286
1505.2	0.9831
1505.4	0.98333
1505.6	0.98357
1505.8	0.98381
1506.0	0.98404
1506.2	0.98368
1506.4	0.98331
1506.6	0.98295
1506.8	0.98259
1507.0	0.98222
1507.2	0.98168
1507.4	0.98113
1507.6	0.98059
1507.8	0.98005
1508.0	0.97952
1508.2	0.97925
1508.4	0.97899
1508.6	0.97873
1508.8	0.97847
1509.0	0.9782
1509.2	0.97785
1509.4	0.97749
1509.6	0.97714
1509.8	0.97679
1510.0	0.97644
1510.2	0.97613
1510.4	0.97582
1510.6	0.97552
1510.8	0.97521
1511.0	0.97491
1511.2	0.97482
1511.4	0.97473
1511.6	0.97463
1511.8	0.97454
1512.0	0.97444
1512.2	0.97403
1512.4	0.97363
1512.6	0.97322
1512.8	0.97282
1513.0	0.97242
1513.2	0.97218
1513.4	0.97194
1513.6	0.9717
1513.8	0.97146
1514.0	0.97122
1514.2	0.97086
1514.4	0.97051
1514.6	0.97016
1514.8	0.9698
1515.0	0.96945
1515.2	0.96937
1515.4	0.96928
1515.6	0.9692
1515.8	0.96912
1516.0	0.96903
1516.2	0.96903
1516.4	0.96902
1516.6	0.96901
1516.8	0.96901
1517.0	0.96902
1517.2	0.96945
1517.4	0.96988
1517.6	0.97031
1517.8	0.97074
1518.0	0.97116
1518.2	0.97113
1518.4	0.9711
1518.6	0.97107
1518.8	0.97104
1519.0	0.97101
1519.2	0.97096
1519.4	0.97091
1519.6	0.97086
1519.8	0.97081
1520.0	0.97077
1520.2	0.971
1520.4	0.97122
1520.6	0.97144
1520.8	0.97166
1521.0	0.97189
1521.2	0.97213
1521.4	0.97237
1521.6	0.97262
1521.8	0.97286
1522.0	0.9731
1522.2	0.97343
1522.4	0.97376
1522.6	0.97409
1522.8	0.97441
1523.0	0.97473
1523.2	0.97467
1523.4	0.97462
1523.6	0.97456
1523.8	0.97451
1524.0	0.97445
1524.2	0.9744
1524.4	0.97434
1524.6	0.97429
1524.8	0.97423
1525.0	0.97419
1525.2	0.97454
1525.4	0.97489
1525.6	0.97525
1525.8	0.9756
1526.0	0.97594
1526.2	0.97589
1526.4	0.97584
1526.6	0.97578
1526.8	0.97573
1527.0	0.97568
1527.2	0.97585
1527.4	0.97602
1527.6	0.97619
1527.8	0.97636
1528.0	0.97651
1528.2	0.9763
1528.4	0.97609
1528.6	0.97587
1528.8	0.97566
1529.0	0.97544
1529.2	0.97502
1529.4	0.9746
1529.6	0.97419
1529.8	0.97377
1530.0	0.97336
1530.2	0.97298
1530.4	0.97261
1530.6	0.97224
1530.8	0.97187
1531.0	0.9715
1531.2	0.97124
1531.4	0.97097
1531.6	0.97071
1531.8	0.97044
1532.0	0.97017
1532.2	0.96949
1532.4	0.96881
1532.6	0.96812
1532.8	0.96744
1533.0	0.96676
1533.2	0.9662
1533.4	0.96563
1533.6	0.96506
1533.8	0.9645
1534.0	0.96395
1534.2	0.96406
1534.4	0.96417
1534.6	0.96429
1534.8	0.9644
1535.0	0.96451
1535.2	0.96443
1535.4	0.96436
1535.6	0.96429
1535.8	0.96421
1536.0	0.96413
1536.2	0.96395
1536.4	0.96377
1536.6	0.96359
1536.8	0.9634
1537.0	0.96322
1537.2	0.96298
1537.4	0.96274
1537.6	0.96249
1537.8	0.96225
1538.0	0.96202
1538.2	0.96216
1538.4	0.96231
1538.6	0.96245
1538.8	0.9626
1539.0	0.96274
1539.2	0.96297
1539.4	0.9632
1539.6	0.96342
1539.8	0.96365
1540.0	0.96387
1540.2	0.96402
1540.4	0.96416
1540.6	0.96431
1540.8	0.96445
1541.0	0.96459
1541.2	0.96451
1541.4	0.96442
1541.6	0.96434
1541.8	0.96426
1542.0	0.96418
1542.2	0.96463
1542.4	0.96509
1542.6	0.96554
1542.8	0.96599
1543.0	0.96645
1543.2	0.96704
1543.4	0.96764
1543.6	0.96823
1543.8	0.96882
1544.0	0.96942
1544.2	0.97025
1544.4	0.97108
1544.6	0.97191
1544.8	0.97275
1545.0	0.97355
1545.2	0.97382
1545.4	0.97408
1545.6	0.97434
1545.8	0.9746
1546.0	0.97486
1546.2	0.97502
1546.4	0.97518
1546.6	0.97534
1546.8	0.9755
1547.0	0.97567
1547.2	0.97605
1547.4	0.97643
1547.6	0.97681
1547.8	0.97719
1548.0	0.97755
1548.2	0.97742
1548.4	0.97728
1548.6	0.97715
1548.8	0.97702
1549.0	0.97689
1549.2	0.97713
1549.4	0.97736
1549.6	0.9776
1549.8	0.97784
1550.0	0.97807
1550.2	0.97793
1550.4	0.97778
1550.6	0.97764
1550.8	0.97749
1551.0	0.97734
1551.2	0.977
1551.4	0.97666
1551.6	0.97632
1551.8	0.97598
1552.0	0.97565
1552.2	0.97559
1552.4	0.97554
1552.6	0.97548
1552.8	0.97543
1553.0	0.97538
1553.2	0.97562
1553.4	0.97585
1553.6	0.97608
1553.8	0.97632
1554.0	0.97654
1554.2	0.97622
1554.4	0.97589
1554.6	0.97557
1554.8	0.97524
1555.0	0.97491
1555.2	0.97442
1555.4	0.97393
1555.6	0.97345
1555.8	0.97296
1556.0	0.97248
1556.2	0.97251
1556.4	0.97253
1556.6	0.97255
1556.8	0.97258
1557.0	0.97259
1557.2	0.97224
1557.4	0.97189
1557.6	0.97155
1557.8	0.9712
1558.0	0.97086
1558.2	0.97091
1558.4	0.97096
1558.6	0.97101
1558.8	0.97106
1559.0	0.97111
1559.2	0.97112
1559.4	0.97113
1559.6	0.97114
1559.8	0.97115
1560.0	0.97118
1560.2	0.97171
1560.4	0.97224
1560.6	0.97278
1560.8	0.97331
1561.0	0.97382
1561.2	0.97388
1561.4	0.97393
1561.6	0.97398
1561.8	0.97403
1562.0	0.97408
1562.2	0.97429
1562.4	0.9745
1562.6	0.97472
1562.8	0.97493
1563.0	0.97514
1563.2	0.97533
1563.4	0.97552
1563.6	0.97571
1563.8	0.9759
1564.0	0.97609
1564.2	0.97652
1564.4	0.97695
1564.6	0.97738
1564.8	0.97781
1565.0	0.97823
1565.2	0.97818
1565.4	0.97813
1565.6	0.97808
1565.8	0.97803
1566.0	0.97799
1566.2	0.97835
1566.4	0.97871
1566.6	0.97908
1566.8	0.97944
1567.0	0.9798
1567.2	0.97999
1567.4	0.98019
1567.6	0.98038
1567.8	0.98058
1568.0	0.98078
1568.2	0.981
1568.4	0.98123
1568.6	0.98145
1568.8	0.98168
1569.0	0.9819
1569.2	0.98205
1569.4	0.9822
1569.6	0.98235
1569.8	0.9825
1570.0	0.98264
1570.2	0.98257
1570.4	0.98249
1570.6	0.98242
1570.8	0.98234
1571.0	0.98228
1571.2	0.98266
1571.4	0.98305
1571.6	0.98344
1571.8	0.98382
1572.0	0.98419
1572.2	0.98422
1572.4	0.98425
1572.6	0.98427
1572.8	0.9843
1573.0	0.98432
1573.2	0.98359
1573.4	0.98286
1573.6	0.98214
1573.8	0.98141
1574.0	0.98071
1574.2	0.98069
1574.4	0.98067
1574.6	0.98065
1574.8	0.98063
1575.0	0.98058
1575.2	0.97979
1575.4	0.97899
1575.6	0.9782
1575.8	0.97741
1576.0	0.97663
1576.2	0.97637
1576.4	0.97612
1576.6	0.97586
1576.8	0.9756
1577.0	0.97535
1577.2	0.9753
1577.4	0.97525
1577.6	0.9752
1577.8	0.97515
1578.0	0.9751
1578.2	0.97524
1578.4	0.97538
1578.6	0.97551
1578.8	0.97565
1579.0	0.97577
1579.2	0.97529
1579.4	0.97482
1579.6	0.97434
1579.8	0.97387
1580.0	0.97339
1580.2	0.97317
1580.4	0.97294
1580.6	0.97271
1580.8	0.97248
1581.0	0.97226
1581.2	0.97215
1581.4	0.97204
1581.6	0.97192
1581.8	0.97181
1582.0	0.9717
1582.2	0.97155
1582.4	0.9714
1582.6	0.97126
1582.8	0.97111
1583.0	0.97096
1583.2	0.97116
1583.4	0.97135
1583.6	0.97155
1583.8	0.97174
1584.0	0.97193
1584.2	0.972
1584.4	0.97207
1584.6	0.97215
1584.8	0.97222
1585.0	0.97231
1585.2	0.9728
1585.4	0.9733
1585.6	0.97379
1585.8	0.97429
1586.0	0.97478
1586.2	0.97491
1586.4	0.97504
1586.6	0.97517
1586.8	0.97529
1587.0	0.97543
1587.2	0.97567
1587.4	0.97591
1587.6	0.97615
1587.8	0.9764
1588.0	0.97664
1588.2	0.97666
1588.4	0.97668
1588.6	0.97671
1588.8	0.97673
1589.0	0.97675
1589.2	0.97645
1589.4	0.97615
1589.6	0.97586
1589.8	0.97556
1590.0	0.97528
1590.2	0.97543
1590.4	0.97557
1590.6	0.97572
1590.8	0.97586
1591.0	0.97601
1591.2	0.97573
1591.4	0.97545
1591.6	0.97518
1591.8	0.9749
1592.0	0.97463
1592.2	0.97439
1592.4	0.97415
1592.6	0.97392
1592.8	0.97368
1593.0	0.97345
1593.2	0.97328
1593.4	0.97311
1593.6	0.97295
1593.8	0.97278
1594.0	0.97261
1594.2	0.97211
1594.4	0.97161
1594.6	0.97112
1594.8	0.97062
1595.0	0.97012
1595.2	0.9696
1595.4	0.96908
1595.6	0.96856
1595.8	0.96805
1596.0	0.96753
1596.2	0.96699
1596.4	0.96645
1596.6	0.96592
1596.8	0.96538
1597.0	0.96485
1597.2	0.96467
1597.4	0.9645
1597.6	0.96432
1597.8	0.96415
1598.0	0.96397
1598.2	0.96381
1598.4	0.96366
1598.6	0.9635
1598.8	0.96334
1599.0	0.96318
1599.2	0.96296
1599.4	0.96274
1599.6	0.96252
1599.8	0.96231
1600.0	0.96211
1600.2	0.96275
1600.4	0.96339
1600.6	0.96404
1600.8	0.96468
1601.0	0.96532
1601.2	0.96568
1601.4	0.96604
1601.6	0.9664
1601.8	0.96676
1602.0	0.96713
1602.2	0.968
1602.4	0.96887
1602.6	0.96974
1602.8	0.97062
1603.0	0.97149
1603.2	0.97229
1603.4	0.9731
1603.6	0.9739
1603.8	0.9747
1604.0	0.97547
1604.2	0.97552
1604.4	0.97557
1604.6	0.97562
1604.8	0.97567
1605.0	0.97572
